time,seconds_elapsed,z,y,x
1696508104459439600,0.143439697265625,-2.846007823944092,-0.5819768905639648,-0.4682464599609375
1696508104475217200,0.159217041015625,-2.6514663696289062,-0.5604323148727417,-0.41855692863464355
1696508104491116800,0.17511669921875,-2.132023811340332,-0.36618566513061523,-0.5359901189804077
1696508104506986000,0.190986083984375,-1.0233497619628906,-0.04103899002075195,-0.5224850177764893
1696508104522763500,0.206763427734375,-0.4497661590576172,0.22901511192321777,-0.35692042112350464
1696508104538663200,0.2226630859375,-0.7193202972412109,0.26958727836608887,-0.15787816047668457
1696508104554471400,0.238471435546875,-0.8109474182128906,0.14529657363891602,-0.2446722388267517
1696508104570371000,0.25437109375,0.34059619903564453,0.14915013313293457,-0.07758784294128418
1696508104586270700,0.270270751953125,1.5721473693847656,0.2505974769592285,0.2889077663421631
1696508104602078700,0.28607861328125,2.3789119720458984,0.19626235961914062,0.649343729019165
1696508104617978400,0.301978271484375,2.8623199462890625,0.20377111434936523,0.3647843599319458
1696508104633908700,0.31790869140625,2.700389862060547,0.1471118927001953,-0.003412008285522461
1696508104649777700,0.333777587890625,2.1640186309814453,-0.05768716335296631,-0.409338116645813
1696508104665616400,0.349616455078125,2.0739917755126953,0.14513170719146729,-0.6732075810432434
1696508104681485600,0.365485595703125,2.3445873260498047,0.25576889514923096,-0.7290264964103699
1696508104697568300,0.381568359375,2.417898178100586,0.20135748386383057,0.025755763053894043
1696508104713345800,0.397345703125,2.2820701599121094,-0.12275838851928711,0.33170080184936523
1696508104729154000,0.413154052734375,2.7945823669433594,-0.5664655566215515,-0.03167635202407837
1696508104744992500,0.428992431640625,3.740675926208496,-0.9806343913078308,-0.3193126916885376
1696508104760800800,0.44480078125,5.018012046813965,-1.0988646745681763,0.1911458969116211
1696508104776670000,0.460669921875,5.592435836791992,-1.401252269744873,0.7965996861457825
1696508104792508400,0.47650830078125,4.933927536010742,-1.1725616455078125,1.0021618604660034
1696508104808347100,0.49234716796875,3.0177392959594727,-1.029299259185791,0.6576481461524963
1696508104824124700,0.508124755859375,1.3911638259887695,-0.858512282371521,0.05858999490737915
1696508104839902200,0.523902099609375,0.4463663101196289,-0.6541436314582825,-0.049235522747039795
1696508104855741000,0.539740966796875,-0.004172325134277344,-0.5909345746040344,0.10263532400131226
1696508104871549000,0.555548828125,-0.3383817672729492,-0.5866351127624512,0.3203808665275574
1696508104887387600,0.5713876953125,-0.974452018737793,-0.5017178058624268,0.37537074089050293
1696508104903195600,0.587195556640625,-1.3479938507080078,-0.400191068649292,0.27164921164512634
1696508104919004000,0.60300390625,-1.9393978118896484,-0.3912825584411621,0.14206279814243317
1696508104934934000,0.61893408203125,-2.7735953330993652,-0.5027958154678345,-0.12688501179218292
1696508104950742000,0.634741943359375,-2.900094985961914,-0.5409516096115112,-0.30389779806137085
1696508104966611200,0.650611083984375,-2.399430751800537,-0.49165797233581543,-0.09290721267461777
1696508104982450000,0.666449951171875,-1.8817763328552246,-0.5379034280776978,0.4635798931121826
1696508104998258000,0.6822578125,-1.759528636932373,-0.4990006685256958,0.7412582039833069
1696508105014157600,0.698157470703125,-2.377007484436035,-0.392492413520813,0.23739369213581085
1696508105029965800,0.7139658203125,-3.094855785369873,-0.0314255952835083,-0.08213368058204651
1696508105045804300,0.72980419921875,-3.6786837577819824,0.1797957420349121,-0.27421194314956665
1696508105061643000,0.74564306640625,-3.878981590270996,0.2424015998840332,-0.2346043735742569
1696508105077481700,0.761481689453125,-3.156731128692627,0.2445688247680664,-0.28969770669937134
1696508105093411800,0.777411865234375,-1.741560935974121,0.1422576904296875,-0.37405967712402344
1696508105109250600,0.79325048828125,-0.3019981384277344,0.09893584251403809,-0.34115585684776306
1696508105125180700,0.8091806640625,1.0535945892333984,0.05016827583312988,-0.3935363292694092
1696508105141019100,0.82501904296875,1.5996198654174805,-0.03764772415161133,-0.31091785430908203
1696508105156827400,0.840827392578125,1.2412605285644531,-0.16356515884399414,-0.18447105586528778
1696508105172727000,0.85672705078125,1.053497314453125,-0.10612249374389648,-0.4527478516101837
1696508105188535000,0.87253515625,0.9728059768676758,-0.42412710189819336,-1.008360743522644
1696508105204404200,0.888404296875,1.40826416015625,-0.45190155506134033,-0.9234559535980225
1696508105220212200,0.904212158203125,1.921133041381836,-0.5348637104034424,-1.1834871768951416
1696508105235990000,0.919989990234375,2.4613771438598633,-0.7304266691207886,-1.7753961086273193
1696508105251889700,0.9358896484375,2.3889341354370117,-0.8694556951522827,-2.0526344776153564
1696508105267636700,0.95163671875,1.8665046691894531,-1.1914371252059937,-1.6224604845046997
1696508105283536400,0.967536376953125,1.3687772750854492,-1.6600289344787598,-1.3540284633636475
1696508105299344400,0.983344482421875,1.4207944869995117,-1.7303518056869507,-1.4724568128585815
1696508105315244000,0.999244140625,1.5364189147949219,-1.6066064834594727,-1.8565545082092285
1696508105331113200,1.01511328125,1.8923463821411133,-1.3597815036773682,-2.1455392837524414
1696508105346952000,1.030951904296875,1.5842819213867188,-1.3214309215545654,-2.3425440788269043
1696508105362820900,1.04682080078125,1.2688789367675781,-1.1185271739959717,-2.422440528869629
1696508105378659600,1.06265966796875,1.0196514129638672,-0.9829481840133667,-2.343126058578491
1696508105394467800,1.0784677734375,0.40253257751464844,-0.8907151222229004,-2.228501319885254
1696508105410367500,1.094367431640625,-0.5060691833496094,-0.8199646472930908,-1.982892632484436
1696508105426175500,1.110175537109375,-1.5957365036010742,-0.5058002471923828,-1.8037900924682617
1696508105442075100,1.1260751953125,-2.1545324325561523,-0.3317694067955017,-1.795686960220337
1696508105457913900,1.141913818359375,-2.2830138206481934,-0.15939706563949585,-1.5749791860580444
1696508105473782800,1.15778271484375,-2.0793795585632324,-0.016326904296875,-1.1626126766204834
1696508105489652000,1.17365185546875,-2.1482582092285156,0.10655772686004639,-0.837670087814331
1696508105505490700,1.18949072265625,-2.167449474334717,0.15579140186309814,-0.5587643980979919
1696508105521482000,1.20548193359375,-1.8517460823059082,0.24805855751037598,-0.3323334753513336
1696508105537290000,1.2212900390625,-2.127427577972412,0.41920405626296997,-0.17017126083374023
1696508105553159200,1.2371591796875,-2.7640233039855957,0.6824235320091248,-0.21576789021492004
1696508105569028400,1.2530283203125,-3.72635555267334,0.9624554514884949,-0.6606582403182983
1696508105584836400,1.26883642578125,-3.8050174713134766,1.2202112674713135,-0.7460955381393433
1696508105600766500,1.284766357421875,-3.0063376426696777,1.247902512550354,-0.6689106822013855
1696508105616605200,1.300605224609375,-1.615462303161621,1.1445024013519287,-0.42160773277282715
1696508105632474400,1.316474365234375,0.13918399810791016,1.017978549003601,-0.3539486825466156
1696508105648343600,1.332343505859375,1.4851179122924805,0.8698792457580566,-0.4758026897907257
1696508105664121000,1.34812109375,2.0567169189453125,0.7726507186889648,-0.6057504415512085
1696508105679959600,1.36395947265625,2.1631641387939453,0.525965690612793,-0.49564141035079956
1696508105695798300,1.37979833984375,2.0580244064331055,0.4559088945388794,-0.6859495639801025
1696508105711637000,1.395636962890625,1.8342208862304688,0.2588181495666504,-0.8118476271629333
1696508105727506000,1.411505859375,1.7084178924560547,-0.06777405738830566,-0.6284260153770447
1696508105743344600,1.4273447265625,2.615478515625,0.06750166416168213,0.02797001600265503
1696508105759213800,1.4432138671875,3.0270299911499023,0.3089672327041626,0.432580828666687
1696508105775052500,1.459052490234375,2.482306480407715,0.2669142484664917,0.5096502900123596
1696508105790830000,1.474830078125,1.8826837539672852,0.13003289699554443,0.3490045666694641
1696508105806699300,1.49069921875,2.3912506103515625,-0.2309802770614624,0.3471745252609253
1696508105822507300,1.50650732421875,3.183260917663574,-0.6687541007995605,0.37984830141067505
1696508105838407000,1.522406982421875,4.392009735107422,-0.6528354287147522,0.44645100831985474
1696508105854276000,1.538276123046875,4.439455032348633,-0.747541069984436,0.5999107956886292
1696508105870114800,1.55411474609375,3.6527976989746094,-0.9301930069923401,0.7105991840362549
1696508105886014500,1.570014404296875,2.4907665252685547,-0.9975674748420715,0.47418731451034546
1696508105901792000,1.5857919921875,1.258284568786621,-1.036787986755371,0.3675285577774048
1696508105917722000,1.60172216796875,-0.06711673736572266,-1.0376476049423218,0.12822210788726807
1696508105933530000,1.617530029296875,-0.6613368988037109,-1.101811170578003,-0.1202402412891388
1696508105949338400,1.63333837890625,-0.6219806671142578,-1.093113899230957,-0.042355120182037354
1696508105965238000,1.649238037109375,-0.334259033203125,-1.1626195907592773,0.20507994294166565
1696508105981046000,1.6650458984375,0.034595489501953125,-1.1108969449996948,0.5087270736694336
1696508105996915200,1.680915283203125,-0.15955638885498047,-0.9736028909683228,0.6030729413032532
1696508106012723500,1.696723388671875,-1.0586633682250977,-0.7546730041503906,0.6366068124771118
1696508106028531500,1.712531494140625,-2.2835540771484375,-0.5413013696670532,0.576542854309082
1696508106044400600,1.728400634765625,-3.265496253967285,-0.45366233587265015,0.45700472593307495
1696508106060178200,1.74417822265625,-3.6364240646362305,-0.4161979556083679,0.29170161485671997
1696508106076047400,1.76004736328125,-3.259398937225342,-0.32651960849761963,0.22128166258335114
1696508106091855400,1.77585546875,-2.853649139404297,-0.1888643503189087,0.436906099319458
1696508106107663600,1.79166357421875,-2.7687087059020996,0.12310874462127686,0.8520667552947998
1696508106123563300,1.807563232421875,-3.08450984954834,0.3902091979980469,0.9667909145355225
1696508106139340800,1.8233408203125,-3.3816561698913574,0.5682008266448975,0.6930137276649475
1696508106155240400,1.839240478515625,-3.323185443878174,0.5642203092575073,0.23979270458221436
1696508106171079200,1.8550791015625,-2.51173734664917,0.5409384965896606,0.14966130256652832
1696508106186887200,1.87088720703125,-1.2531242370605469,0.3276325464248657,0.2131883203983307
1696508106202756400,1.88675634765625,0.5038719177246094,0.14449799060821533,0.5791530609130859
1696508106218564400,1.902564453125,1.6861820220947266,-0.040424346923828125,0.8471505641937256
1696508106234433500,1.91843359375,1.8380279541015625,-0.13096308708190918,0.8963031768798828
1696508106250241500,1.934241455078125,1.8286638259887695,0.006604433059692383,0.500095009803772
1696508106266049800,1.9500498046875,1.3040285110473633,0.0883936882019043,-0.5289738178253174
1696508106281949400,1.965949462890625,0.9349451065063477,-0.11943173408508301,-1.4047647714614868
1696508106297727000,1.98172705078125,1.5420169830322266,-0.010080933570861816,-1.0135574340820312
1696508106313596200,1.99759619140625,2.1521358489990234,-0.4581347703933716,-0.6386871337890625
1696508106329435000,2.013434814453125,2.5034780502319336,-0.5477522611618042,-0.7644599676132202
1696508106345243000,2.029242919921875,2.0546960830688477,-0.7022226452827454,-1.3634980916976929
1696508106361112000,2.045112060546875,1.8828487396240234,-1.0365550518035889,-2.0545170307159424
1696508106376920000,2.060920166015625,1.9973840713500977,-1.444748878479004,-2.7367563247680664
1696508106392819700,2.07681982421875,2.580878257751465,-1.6401901245117188,-2.6916632652282715
1696508106408658400,2.092658447265625,2.7898330688476562,-1.7201967239379883,-2.3562095165252686
1696508106424497000,2.108496826171875,2.805182456970215,-1.375690221786499,-1.9094504117965698
1696508106440366000,2.124365966796875,1.9961671829223633,-1.1711795330047607,-2.046463966369629
1696508106456204800,2.140204833984375,0.7311630249023438,-1.0631529092788696,-2.0684828758239746
1696508106472104400,2.1561044921875,-0.24686336517333984,-0.9367890357971191,-1.9228681325912476
1696508106487943200,2.171943115234375,-1.2366828918457031,-0.9449152946472168,-1.781538963317871
1696508106503781600,2.18778173828125,-1.8020648956298828,-0.9463303089141846,-1.1614046096801758
1696508106519650800,2.20365087890625,-1.841409683227539,-0.8693432211875916,-0.7589306831359863
1696508106535458800,2.219458740234375,-1.602407455444336,-0.652886152267456,-0.35776591300964355
1696508106551328000,2.235327880859375,-1.722569465637207,-0.3691866397857666,-0.18287824094295502
1696508106567166700,2.251166748046875,-2.1998538970947266,-0.14363491535186768,-0.03356756269931793
1696508106582974700,2.266974609375,-2.81553316116333,0.09694778919219971,-0.006784927099943161
1696508106598844000,2.282843994140625,-3.2231340408325195,0.37051457166671753,-0.2588673532009125
1696508106614591000,2.298591064453125,-3.3897838592529297,0.563829243183136,-0.31196996569633484
1696508106630490600,2.31449072265625,-3.47866153717041,0.6445400714874268,-0.2108864188194275
1696508106646299000,2.330298828125,-3.3079614639282227,0.8036085367202759,-0.1280730813741684
1696508106662107000,2.34610693359375,-2.4636311531066895,0.9789834022521973,0.06825482845306396
1696508106677976000,2.36197607421875,-1.6756563186645508,1.0417957305908203,0.18730488419532776
1696508106693753600,2.377753662109375,-1.5533714294433594,1.0751930475234985,0.16841009259223938
1696508106709653200,2.3936533203125,-1.5589685440063477,1.159074306488037,-0.15550437569618225
1696508106725492000,2.409491943359375,-0.36620521545410156,1.144315242767334,-0.3649594187736511
1696508106741300000,2.425300048828125,0.9438896179199219,1.128461480140686,-0.1928417682647705
1696508106757169200,2.441169189453125,1.7843046188354492,1.0704594850540161,0.2655044198036194
1696508106772977200,2.45697705078125,2.251680374145508,0.584787130355835,0.6755443811416626
1696508106788876800,2.472876708984375,2.709287643432617,0.29217302799224854,0.5273807644844055
1696508106804746000,2.48874609375,3.024932861328125,-0.04591202735900879,0.09744161367416382
1696508106820493000,2.5044931640625,3.3143577575683594,-0.38147175312042236,-0.05378592014312744
1696508106836362200,2.5203623046875,3.1899328231811523,-0.22655832767486572,0.2795639634132385
1696508106852170200,2.536170166015625,2.512721061706543,-0.16506922245025635,0.7748964428901672
1696508106868039400,2.552039306640625,2.295416831970215,-0.29498064517974854,0.8104323744773865
1696508106883847700,2.56784765625,2.988290786743164,-0.7459222674369812,0.5716620087623596
1696508106899655700,2.58365576171875,4.327324867248535,-1.3220899105072021,0.6715434193611145
1696508106915433200,2.59943310546875,5.273904800415039,-1.4408419132232666,0.8524677753448486
1696508106931241500,2.615241455078125,4.813808441162109,-1.5866414308547974,1.3140686750411987
1696508106947141000,2.63114111328125,3.505791664123535,-1.5879532098770142,1.4204694032669067
1696508106962979600,2.6469794921875,1.8804712295532227,-1.5403797626495361,1.1278016567230225
1696508106978818300,2.662818359375,0.8120231628417969,-1.4661281108856201,0.7369645833969116
1696508106994718000,2.678718017578125,0.18408775329589844,-1.4791815280914307,0.6499497294425964
1696508107010495500,2.69449560546875,-0.031982421875,-1.502480149269104,0.6361368894577026
1696508107026334200,2.710334228515625,-0.6043319702148438,-1.5714807510375977,0.5765860080718994
1696508107042142200,2.72614208984375,-1.0282402038574219,-1.589303731918335,0.5572865009307861
1696508107057981000,2.74198095703125,-1.2633075714111328,-1.6322189569473267,0.5943179726600647
1696508107073850000,2.75785009765625,-1.400404930114746,-1.5314546823501587,0.6201172471046448
1696508107089658000,2.773658203125,-1.7115726470947266,-1.418959379196167,0.5910371541976929
1696508107105496800,2.789496826171875,-2.470987319946289,-1.2618101835250854,0.5565903782844543
1696508107121366000,2.805365966796875,-2.966590404510498,-1.1875672340393066,0.6247040033340454
1696508107137174000,2.821174072265625,-3.1782960891723633,-1.0692695379257202,0.7419608235359192
1696508107153043200,2.837043212890625,-3.3498668670654297,-0.935594379901886,0.739493191242218
1696508107168851200,2.852851318359375,-3.5810494422912598,-0.8478414416313171,0.6937336921691895
1696508107184659500,2.868659423828125,-3.548947334289551,-0.7200739979743958,0.6576276421546936
1696508107200498000,2.884497802734375,-3.1610679626464844,-0.543708086013794,0.5961450934410095
1696508107216306200,2.90030615234375,-2.983879566192627,-0.3159288167953491,0.6587674021720886
1696508107232175400,2.91617529296875,-3.1265158653259277,-0.11819696426391602,0.7881249785423279
1696508107247983400,2.9319833984375,-3.2057552337646484,0.13072466850280762,0.7487974166870117
1696508107263852500,2.9478525390625,-2.3833937644958496,0.25661909580230713,0.4103727340698242
1696508107279752200,2.963752197265625,-1.328704833984375,0.24699926376342773,0.35376057028770447
1696508107295621400,2.979621337890625,0.08052539825439453,0.23651337623596191,0.6165314316749573
1696508107311490300,2.995490234375,1.4354963302612305,0.05071842670440674,0.6276976466178894
1696508107327329000,3.0113291015625,2.295119285583496,0.011513829231262207,0.35067635774612427
1696508107343259100,3.027259033203125,2.4359798431396484,0.010886430740356445,0.22322329878807068
1696508107359067400,3.0430673828125,2.087038993835449,-0.08582198619842529,-0.0016486644744873047
1696508107374875400,3.05887548828125,2.063199043273926,-0.09822285175323486,-0.507289469242096
1696508107390775000,3.074775146484375,2.745227813720703,0.20709383487701416,-0.9760107398033142
1696508107406613800,3.09061376953125,3.076627731323242,-0.0782080888748169,-0.883348286151886
1696508107422391300,3.106391357421875,3.6019859313964844,-0.320034384727478,-0.36195749044418335
1696508107438199300,3.12219921875,3.699732780456543,-0.9209320545196533,-0.6089124083518982
1696508107454007600,3.138007568359375,3.6091299057006836,-1.5155518054962158,-1.3564224243164062
1696508107469876700,3.153876708984375,3.4940719604492188,-1.6588566303253174,-1.525186538696289
1696508107485684700,3.169684814453125,3.941037178039551,-1.9671106338500977,-1.8934054374694824
1696508107501584400,3.18558447265625,4.383210182189941,-1.6793417930603027,-1.6703821420669556
1696508107517392600,3.201392578125,3.6172285079956055,-1.502535104751587,-1.4694457054138184
1696508107533200600,3.21720068359375,2.3300065994262695,-1.2805594205856323,-1.327087640762329
1696508107549069800,3.23306982421875,0.6671648025512695,-0.9818177223205566,-1.8475309610366821
1696508107564877800,3.2488779296875,-0.8057889938354492,-0.8019365072250366,-1.9007359743118286
1696508107580686000,3.26468603515625,-1.8358139991760254,-0.8343274593353271,-1.1599574089050293
1696508107596494000,3.280494140625,-2.524623394012451,-0.9259541630744934,-0.44615739583969116
1696508107612271600,3.296271728515625,-2.5100717544555664,-0.7826665043830872,-0.10746249556541443
1696508107628201700,3.31220166015625,-2.429647445678711,-0.6530923247337341,-0.07419079542160034
1696508107644040400,3.32804052734375,-2.6716103553771973,-0.5144816040992737,0.09643591940402985
1696508107659909600,3.34390966796875,-2.6579222679138184,-0.32738298177719116,0.31836023926734924
1696508107675778800,3.35977880859375,-2.9961977005004883,-0.15553855895996094,0.27233168482780457
1696508107691617300,3.3756171875,-3.817552089691162,-0.03973543643951416,0.15377140045166016
1696508107707517000,3.391516845703125,-4.462231159210205,0.04498302936553955,0.08606112003326416
1696508107723294700,3.407294677734375,-4.143797874450684,0.17112421989440918,-0.22657406330108643
1696508107739133200,3.42313330078125,-3.227168560028076,0.1860489845275879,-0.14346152544021606
1696508107754972000,3.438971923828125,-2.4442315101623535,0.2852940559387207,0.2780866026878357
1696508107770810400,3.454810302734375,-2.282895565032959,0.4393787384033203,0.34858107566833496
1696508107786710300,3.470710205078125,-2.3367977142333984,0.576958417892456,0.01301276683807373
1696508107802579200,3.4865791015625,-1.690169334411621,0.6193735599517822,-0.292822003364563
1696508107818478800,3.502478759765625,-0.5856256484985352,0.4120115041732788,0.0014805495738983154
1696508107834287000,3.518287109375,1.894850730895996,0.4211641550064087,0.6522457599639893
1696508107850095000,3.53409521484375,3.043121337890625,0.2510805130004883,1.1905617713928223
1696508107865964300,3.54996435546875,2.3708419799804688,0.2945815324783325,1.4099313020706177
1696508107881803000,3.565802978515625,1.3714609146118164,0.18559527397155762,0.6525529623031616
1696508107897702700,3.58170263671875,1.8121747970581055,-0.06865906715393066,-0.6209871768951416
1696508107913480200,3.597480224609375,3.3122949600219727,-0.009057998657226562,-0.8014041185379028
1696508107929257700,3.6132578125,4.758007049560547,0.19626247882843018,0.09118634462356567
1696508107945127000,3.629126953125,5.49458122253418,0.34175288677215576,1.192209243774414
1696508107960935000,3.644934814453125,5.551191329956055,0.31957805156707764,1.0061883926391602
1696508107976834600,3.66083447265625,5.2281341552734375,-0.032233238220214844,0.2064703106880188
1696508107992673300,3.67667333984375,4.78675651550293,-0.4107546806335449,-0.4647572934627533
1696508108008481300,3.692481201171875,4.494217872619629,-0.7171198129653931,-0.3499572277069092
1696508108024381000,3.708380859375,3.6208391189575195,-1.211193323135376,0.26822322607040405
1696508108040189200,3.724189208984375,2.4474496841430664,-1.5734426975250244,0.8082977533340454
1696508108056149800,3.740149658203125,1.3581676483154297,-1.686944603919983,1.3219406604766846
1696508108072080100,3.756080078125,0.08069038391113281,-1.633556842803955,1.4942090511322021
1696508108087888100,3.77188818359375,-1.246072769165039,-1.462453842163086,1.2745250463485718
1696508108103726800,3.787726806640625,-2.4232945442199707,-1.366896390914917,0.819215714931488
1696508108119595800,3.803595703125,-3.4430599212646484,-1.4428837299346924,0.35655710101127625
1696508108135495400,3.819495361328125,-3.7446436882019043,-1.4841381311416626,0.1726948618888855
1696508108151273200,3.835273193359375,-3.6245970726013184,-1.5128531455993652,0.723268985748291
1696508108167081200,3.851081298828125,-3.9342050552368164,-1.612695574760437,1.0459773540496826
1696508108182980900,3.86698095703125,-4.011280536651611,-1.5922250747680664,1.0573151111602783
1696508108198789000,3.8827890625,-3.8226046562194824,-1.4788620471954346,0.7581835389137268
1696508108214566700,3.898566650390625,-3.422760486602783,-1.2075058221817017,0.13223305344581604
1696508108230374700,3.914374755859375,-2.8681678771972656,-1.0921268463134766,-0.10880259424448013
1696508108246213400,3.93021337890625,-2.4255599975585938,-0.9091193675994873,0.05452197417616844
1696508108262113000,3.946113037109375,-1.9734835624694824,-0.6939350366592407,0.057350967079401016
1696508108277921000,3.961921142578125,-1.6660685539245605,-0.29900527000427246,-0.29827550053596497
1696508108293790200,3.977790283203125,-2.276524066925049,0.2914283275604248,-0.7970934510231018
1696508108309659400,3.993659423828125,-3.138286590576172,0.5903874635696411,-0.5305477380752563
1696508108325467400,4.00946728515625,-3.0767502784729004,0.6619217395782471,0.4459106922149658
1696508108341397800,4.025397705078125,-1.4729804992675781,0.44847941398620605,1.10822331905365
1696508108357266700,4.0412666015625,1.5766792297363281,0.39150261878967285,1.384401559829712
1696508108373166300,4.057166259765625,3.367664337158203,0.5703065395355225,1.334299921989441
1696508108388974600,4.072974609375,3.492842674255371,0.4849851131439209,1.3475024700164795
1696508108404752100,4.088752197265625,3.7129335403442383,0.5504076480865479,1.0535151958465576
1696508108420621300,4.104621337890625,3.7457237243652344,0.3887948989868164,0.8427926898002625
1696508108436460000,4.1204599609375,3.517937660217285,0.002333402633666992,0.22670435905456543
1696508108452329000,4.136328857421875,3.5651636123657227,-0.14153766632080078,-0.0601685494184494
1696508108468198100,4.1521982421875,3.465468406677246,-0.43249690532684326,-0.07204608619213104
1696508108484006400,4.16800634765625,2.6472787857055664,-0.5597039461135864,-0.11923986673355103
1696508108499875300,4.183875244140625,2.044365882873535,-0.6767163276672363,-0.4777948260307312
1696508108515714000,4.199714111328125,2.003185272216797,-1.0095701217651367,-1.2585197687149048
1696508108531583200,4.215583251953125,2.7803478240966797,-1.3015263080596924,-2.037839412689209
1696508108547421700,4.231421630859375,3.6817283630371094,-1.7009860277175903,-2.1916251182556152
1696508108563260400,4.247260498046875,4.446702003479004,-1.794230580329895,-1.9505025148391724
1696508108579160000,4.26316015625,4.418827056884766,-2.1143784523010254,-2.002119541168213
1696508108594876700,4.278876708984375,3.1199798583984375,-1.6608283519744873,-1.8047786951065063
1696508108610837200,4.294837158203125,0.38471031188964844,-1.2789579629898071,-2.958632230758667
1696508108626645500,4.3106455078125,-2.260408878326416,-0.9677014350891113,-3.5806448459625244
1696508108642484000,4.32648388671875,-3.446847438812256,-0.9663467407226562,-2.9031636714935303
1696508108658383600,4.342383544921875,-3.0674185752868652,-1.1156818866729736,-1.7759604454040527
1696508108674192000,4.35819189453125,-2.0497097969055176,-1.2131426334381104,-0.4531713128089905
1696508108690091500,4.374091552734375,-1.2227668762207031,-1.1759408712387085,0.5333817601203918
1696508108705869000,4.389869140625,-1.2479934692382812,-0.953392505645752,0.778232991695404
1696508108721707800,4.405707763671875,-2.176863670349121,-0.6805661916732788,0.4935814142227173
1696508108737638000,4.421637939453125,-3.505068302154541,-0.452114462852478,0.09061390161514282
1696508108753415400,4.43741552734375,-4.647112846374512,-0.2530786991119385,0.2454480528831482
1696508108769315000,4.453315185546875,-5.021545886993408,-0.14149141311645508,0.19317370653152466
1696508108785184300,4.469184326171875,-4.127712249755859,-0.1429920196533203,0.1852184534072876
1696508108801023000,4.48502294921875,-2.982762336730957,-0.1673816442489624,0.2806706428527832
1696508108816922600,4.500922607421875,-2.2119674682617188,-0.12278091907501221,0.3626618981361389
1696508108832730600,4.516730712890625,-2.2332687377929688,0.03921687602996826,0.3970012664794922
1696508108848630300,4.53263037109375,-2.214181900024414,0.3622145652770996,0.03798246383666992
1696508108864438500,4.5484384765625,-1.4897117614746094,0.7391942739486694,-0.4297431707382202
1696508108880246500,4.56424658203125,-0.8465824127197266,0.9387526512145996,-0.43770045042037964
1696508108896176600,4.5801767578125,1.0806093215942383,0.7816070318222046,0.47768861055374146
1696508108911985000,4.59598486328125,2.6688575744628906,0.5904161930084229,1.538617491722107
1696508108927853800,4.611853759765625,3.007147789001465,0.5748395919799805,1.4281001091003418
1696508108943692500,4.627692626953125,2.8033084869384766,0.55243980884552,0.014590859413146973
1696508108959500800,4.643500732421875,2.998410224914551,0.3127959966659546,-1.0035792589187622
1696508108975369700,4.65936962890625,3.643754005432129,0.2946213483810425,-0.5300306677818298
1696508108991178000,4.675177978515625,4.148955345153809,0.505030632019043,0.11548185348510742
1696508109007077600,4.69107763671875,2.3308067321777344,0.8079448938369751,1.103097915649414
1696508109022916000,4.706916015625,2.043323516845703,0.2536332607269287,1.0955557823181152
1696508109038724400,4.722724365234375,5.877235412597656,-0.2444068193435669,0.07464396953582764
1696508109054624000,4.7386240234375,8.555564880371094,-0.6232828497886658,-1.6937932968139648
1696508109070401500,4.754401611328125,6.8713579177856445,-0.7842597365379333,-2.1103320121765137
1696508109086209500,4.77020947265625,1.3409881591796875,-1.1069073677062988,-0.14607802033424377
1696508109102078700,4.78607861328125,-3.016765594482422,-1.2458019256591797,1.0838173627853394
1696508109117887000,4.801886962890625,-3.0578174591064453,-1.6286816596984863,1.5939961671829224
1696508109133756200,4.817756103515625,-0.7350645065307617,-1.9538915157318115,1.4271161556243896
1696508109149533700,4.83353369140625,0.8599166870117188,-2.0215718746185303,0.8037142753601074
1696508109165403000,4.84940283203125,0.6894969940185547,-1.808093786239624,0.9441512823104858
1696508109181271800,4.865271728515625,-0.0020589828491210938,-1.6725037097930908,1.2779195308685303
1696508109197080000,4.881080078125,-0.2422351837158203,-1.5326342582702637,1.1741647720336914
1696508109212918500,4.89691845703125,-0.5093116760253906,-1.5037444829940796,1.2419836521148682
1696508109228757200,4.91275732421875,-1.505819320678711,-1.357305884361267,1.2357771396636963
1696508109244596000,4.928595947265625,-2.6890363693237305,-1.159289836883545,1.0530450344085693
1696508109260434400,4.944434326171875,-3.7429304122924805,-0.8882687091827393,0.8627986907958984
1696508109276242700,4.96024267578125,-4.3074421882629395,-0.7994047403335571,0.8646979331970215
1696508109292112000,4.97611181640625,-4.3406901359558105,-0.7625727653503418,0.47638389468193054
1696508109307920000,4.991919921875,-4.0897746086120605,-0.3826799988746643,0.1560782790184021
1696508109323789000,5.0077890625,-3.412140369415283,-0.209991455078125,0.12289577722549438
1696508109339627500,5.02362744140625,-2.5102763175964355,-0.016692638397216797,0.39248454570770264
1696508109355435800,5.039435791015625,-2.2989792823791504,0.13628709316253662,0.6002668142318726
1696508109371335400,5.05533544921875,-3.021653175354004,0.4401881694793701,0.3619592785835266
1696508109387143400,5.071143310546875,-3.1395750045776367,0.8078272342681885,-0.26058441400527954
1696508109403012600,5.0870126953125,-0.7028102874755859,0.8713918924331665,-0.5455247163772583
1696508109418881800,5.1028818359375,2.423172950744629,0.4841184616088867,0.10716542601585388
1696508109434689800,5.118689697265625,4.568610191345215,0.22392618656158447,0.9185099601745605
1696508109450559000,5.13455908203125,4.412477493286133,0.07857990264892578,1.1577463150024414
1696508109466367200,5.1503671875,2.7896242141723633,0.2235255241394043,0.7813530564308167
1696508109482236200,5.166236083984375,1.3328514099121094,0.294719934463501,-0.16173696517944336
1696508109498075000,5.182074951171875,1.6435871124267578,0.3293495178222656,-1.7627055644989014
1696508109513883000,5.1978828125,3.182497024536133,0.5835071802139282,-1.8721015453338623
1696508109529782800,5.21378271484375,3.8991823196411133,0.5677460432052612,-1.2969027757644653
1696508109545590800,5.2295908203125,3.1825733184814453,0.6419558525085449,-1.4789495468139648
1696508109561490400,5.245490478515625,2.0107879638671875,0.2717229127883911,-1.871588945388794
1696508109577268000,5.26126806640625,1.3427047729492188,-0.6628340482711792,-2.1956539154052734
1696508109593076200,5.277076171875,1.8954601287841797,-1.6337885856628418,-2.569101095199585
1696508109608945200,5.292945068359375,3.4192075729370117,-2.3778953552246094,-2.6091206073760986
1696508109624753400,5.30875341796875,4.177652359008789,-2.846438407897949,-1.2627252340316772
1696508109640622600,5.32462255859375,3.9549665451049805,-2.6633925437927246,0.09108459949493408
1696508109656491500,5.340491455078125,2.368478775024414,-2.286299705505371,0.07335184514522552
1696508109672269300,5.356269287109375,-0.04843425750732422,-1.9080003499984741,-1.0597366094589233
1696508109688139500,5.372139404296875,-2.2906293869018555,-1.4694468975067139,-2.410079002380371
1696508109704100000,5.38810009765625,-2.990506172180176,-1.2849899530410767,-2.252418041229248
1696508109719999700,5.403999755859375,-2.943045139312744,-1.2856262922286987,-1.2041234970092773
1696508109735838500,5.41983837890625,-2.617361545562744,-1.307584285736084,-0.5289018154144287
1696508109751677200,5.43567724609375,-2.314455509185791,-1.2191113233566284,0.005805209279060364
1696508109767546000,5.451546142578125,-2.4294276237487793,-1.0185240507125854,0.2981705665588379
1696508109783354400,5.467354248046875,-2.8142738342285156,-0.7018927931785583,0.017559915781021118
1696508109799254000,5.48325390625,-3.3063883781433105,-0.365447998046875,-0.24852102994918823
1696508109815092700,5.4990927734375,-4.114928245544434,-0.18799501657485962,-0.3366357982158661
1696508109830931200,5.51493115234375,-5.018495559692383,0.014560461044311523,-0.29752105474472046
1696508109846800400,5.53080029296875,-5.003138065338135,-0.010355949401855469,-0.243135005235672
1696508109862608400,5.5466083984375,-3.932828426361084,-0.03714346885681152,0.293784499168396
1696508109878569200,5.5625693359375,-2.5741376876831055,0.1296699047088623,0.623895525932312
1696508109894407700,5.57840771484375,-1.9927067756652832,0.3581404685974121,0.35936611890792847
1696508109910246400,5.594246337890625,-2.112295150756836,0.6907999515533447,0.16093993186950684
1696508109926146000,5.61014599609375,-1.8090810775756836,0.9904932975769043,0.016041994094848633
1696508109941923600,5.625923583984375,-1.009634017944336,1.082810878753662,0.36161816120147705
1696508109957823200,5.6418232421875,1.3773880004882812,0.9962656497955322,1.2441151142120361
1696508109973631500,5.657631591796875,3.684591293334961,0.8753467798233032,2.142578125
1696508109989470000,5.673469970703125,4.383968353271484,0.6738731861114502,1.8276194334030151
1696508110005369600,5.68936962890625,3.941354751586914,0.5304993391036987,0.22697138786315918
1696508110021208300,5.705208251953125,3.570344924926758,0.29525113105773926,-1.4549481868743896
1696508110037108000,5.72110791015625,3.495011329650879,0.3469172716140747,-1.373928189277649
1696508110052885500,5.736885498046875,3.30551815032959,0.390399694442749,-0.4348491430282593
1696508110068663300,5.752663330078125,4.300148963928223,0.6059427261352539,0.35692882537841797
1696508110084563000,5.76856298828125,5.316220283508301,0.3868098258972168,0.10432636737823486
1696508110100371000,5.784370849609375,5.815791130065918,-0.13941949605941772,-0.23985087871551514
1696508110116392700,5.800392822265625,5.8348541259765625,-0.7010080814361572,-0.7125959396362305
1696508110132231200,5.816231201171875,4.967952728271484,-1.1600077152252197,-0.9243968725204468
1696508110148039400,5.832039306640625,3.1722803115844727,-1.4453544616699219,-0.34376710653305054
1696508110164000000,5.848,0.9186248779296875,-1.6001687049865723,0.2237778902053833
1696508110179777800,5.86377783203125,-0.24699115753173828,-1.6948988437652588,0.24158120155334473
1696508110195585800,5.879585693359375,-0.6506986618041992,-1.9833285808563232,0.3679460287094116
1696508110211393800,5.895393798828125,-0.5750770568847656,-2.0370187759399414,0.5737651586532593
1696508110227171600,5.911171630859375,-0.5312557220458984,-2.0642621517181396,0.6352543830871582
1696508110243010000,5.927010009765625,-0.8707122802734375,-1.908815860748291,0.4598771333694458
1696508110258818300,5.942818359375,-1.6350507736206055,-1.7557443380355835,0.48043835163116455
1696508110274687200,5.958687255859375,-1.8774847984313965,-1.4442169666290283,0.8280783295631409
1696508110290526000,5.97452587890625,-2.5266199111938477,-1.1290714740753174,0.641713559627533
1696508110306334000,5.990333984375,-3.400434970855713,-0.9819819927215576,0.2712491750717163
1696508110322233900,6.00623388671875,-4.124526023864746,-0.8871592879295349,-0.027232468128204346
1696508110338041900,6.022041748046875,-4.361713886260986,-0.7361593246459961,-0.18246477842330933
1696508110353849900,6.037849853515625,-3.987936019897461,-0.695814847946167,-0.23486149311065674
1696508110369688600,6.0536884765625,-3.338829517364502,-0.6281816363334656,-0.24246883392333984
1696508110385527300,6.06952734375,-3.5268163681030273,-0.35066574811935425,-0.10804688930511475
1696508110401457400,6.08545751953125,-4.391052722930908,0.09123504161834717,-0.21707090735435486
1696508110417296000,6.1012958984375,-4.986937999725342,0.5456582307815552,-0.547787606716156
1696508110433195800,6.11719580078125,-3.6694483757019043,0.7329427003860474,-0.06443321704864502
1696508110448973300,6.132973388671875,-1.813194751739502,0.8350732326507568,0.6711260080337524
1696508110464781300,6.14878125,0.35070323944091797,0.8889751434326172,1.1378310918807983
1696508110480650500,6.164650390625,1.8847169876098633,0.9098132848739624,1.4798680543899536
1696508110496367000,6.1803671875,2.9466428756713867,0.994159460067749,1.4266835451126099
1696508110512297200,6.196297119140625,2.8994293212890625,1.0940113067626953,0.8559049367904663
1696508110528105200,6.212105224609375,2.708730697631836,1.1561195850372314,0.2876593768596649
1696508110543974400,6.227974365234375,2.9187450408935547,1.0001106262207031,-0.3014688491821289
1696508110559874000,6.2438740234375,3.511784553527832,0.8423707485198975,-0.4674162268638611
1696508110575651600,6.259651611328125,4.048961639404297,0.8107571601867676,-0.5394423007965088
1696508110591459800,6.2754599609375,4.27044677734375,0.6499170064926147,-0.5877049565315247
1696508110607298600,6.291298583984375,3.631028175354004,0.42784857749938965,-1.0416760444641113
1696508110623106600,6.3071064453125,2.431671142578125,-0.32032960653305054,-1.7919963598251343
1696508110639006200,6.323006103515625,3.0376882553100586,-1.6262037754058838,-1.524792194366455
1696508110654814200,6.338814208984375,4.439118385314941,-2.5629658699035645,-0.6089284420013428
1696508110670653000,6.35465283203125,4.880892753601074,-3.1779303550720215,0.06895935535430908
1696508110686491600,6.37049169921875,3.6626663208007812,-3.040292263031006,-0.1698029637336731
1696508110702299600,6.386299560546875,2.525832176208496,-2.707244873046875,-2.125927448272705
1696508110718229800,6.402229736328125,1.2306642532348633,-2.025829553604126,-3.7625222206115723
1696508110733976800,6.417976806640625,-0.14318084716796875,-1.425807237625122,-2.9872889518737793
1696508110749876500,6.43387646484375,-1.694694995880127,-1.2502716779708862,-1.4365806579589844
1696508110765715200,6.449715087890625,-2.431896209716797,-1.2436695098876953,-0.598093569278717
1696508110781523200,6.465523193359375,-2.2282767295837402,-1.1279938220977783,-0.1454295516014099
1696508110797422800,6.4814228515625,-1.9608640670776367,-0.7882082462310791,0.07420861721038818
1696508110813231000,6.497231201171875,-2.3689537048339844,-0.43168318271636963,0.01453101634979248
1696508110829100300,6.513100341796875,-3.0961241722106934,-0.034825921058654785,-0.6446097493171692
1696508110844938800,6.528938720703125,-4.121918678283691,0.28548383712768555,-1.0928990840911865
1696508110860777500,6.544777587890625,-5.29365348815918,0.31555378437042236,-0.9840553998947144
1696508110876677000,6.560677001953125,-5.8607940673828125,0.11034679412841797,-1.226413607597351
1696508110892424200,6.576424072265625,-5.29005241394043,-0.005806922912597656,-0.738904595375061
1696508110908263000,6.592262939453125,-4.961796760559082,-0.1363154649734497,-0.4356023073196411
1696508110924101400,6.608101318359375,-4.588648796081543,0.07111597061157227,0.0358884334564209
1696508110939940000,6.623940185546875,-4.14433479309082,0.2909015417098999,0.574857234954834
1696508110955809300,6.639809326171875,-3.2491674423217773,0.6273995637893677,1.039138913154602
1696508110971617300,6.6556171875,-2.604478359222412,0.872999906539917,0.8790404796600342
1696508110987517000,6.671516845703125,-1.7666616439819336,1.192971110343933,-0.032979369163513184
1696508111003325000,6.687324951171875,0.9629678726196289,0.9955333471298218,-0.7682503461837769
1696508111019133200,6.70313330078125,4.561761856079102,0.6611330509185791,-0.22063422203063965
1696508111035063300,6.719063232421875,5.921131134033203,0.410076379776001,0.8726451992988586
1696508111050840800,6.7348408203125,4.627107620239258,0.5585860013961792,0.8594918847084045
1696508111066710000,6.7507099609375,3.7539844512939453,0.7552676200866699,-0.24808472394943237
1696508111082548700,6.766548828125,3.6966609954833984,0.7800391912460327,-1.1590098142623901
1696508111098356700,6.782356689453125,4.081661224365234,0.8755522966384888,-0.7471185922622681
1696508111114256400,6.79825634765625,4.160650253295898,0.7100248336791992,0.060576558113098145
1696508111130095000,6.81409521484375,3.3313236236572266,0.48474764823913574,1.2685966491699219
1696508111145964300,6.82996435546875,3.35030460357666,-0.09690308570861816,1.3732433319091797
1696508111161802800,6.845802734375,4.718306541442871,-0.9778021574020386,0.6358256936073303
1696508111177611000,6.861611083984375,6.254369735717773,-1.6559884548187256,0.5745683908462524
1696508111193480200,6.877480224609375,6.065991401672363,-2.1857519149780273,1.1060718297958374
1696508111209318700,6.893318603515625,4.431463241577148,-2.168933153152466,1.455627679824829
1696508111225187800,6.909187744140625,1.7418441772460938,-1.8473992347717285,1.0909271240234375
1696508111240995800,6.924995849609375,-0.6679067611694336,-1.3824602365493774,0.6784260869026184
1696508111256773600,6.940773681640625,-2.6766343116760254,-0.936577558517456,0.25628769397735596
1696508111272703700,6.956703857421875,-3.581057548522949,-0.8055666089057922,0.21761554479599
1696508111288420400,6.97242041015625,-3.278177261352539,-0.8938122987747192,0.03840899467468262
1696508111304289300,6.988289306640625,-2.0928878784179688,-1.0891934633255005,0.1001635193824768
1696508111320128000,7.0041279296875,-1.034255027770996,-1.136021375656128,0.23186004161834717
1696508111335997200,7.0199970703125,-1.0800437927246094,-1.0762085914611816,0.7894775867462158
1696508111351927300,7.03592724609375,-1.680312156677246,-0.8551465272903442,0.8389148116111755
1696508111367704800,7.051704833984375,-2.5066585540771484,-0.5968291759490967,0.6418842077255249
1696508111383604500,7.0676044921875,-3.6009531021118164,-0.3798111379146576,0.38907885551452637
1696508111399473700,7.0834736328125,-4.602041244506836,-0.2775677442550659,0.14096486568450928
1696508111415282000,7.099281982421875,-4.747001647949219,-0.09347033500671387,0.2915259599685669
1696508111431120400,7.115120361328125,-4.749184608459473,0.1344923973083496,0.34367451071739197
1696508111446959000,7.130958984375,-4.7710442543029785,0.4794539213180542,0.19631269574165344
1696508111462828300,7.146828369140625,-4.675445079803467,0.7143197059631348,-0.181880384683609
1696508111478666800,7.162666748046875,-3.5567665100097656,0.9908429384231567,-0.3917155861854553
1696508111494475000,7.17847509765625,-2.2650818824768066,1.0267884731292725,-0.4976871609687805
1696508111510344200,7.19434423828125,0.6393518447875977,1.070754885673523,-0.3790910243988037
1696508111526152200,7.210152099609375,2.6259117126464844,0.9706077575683594,0.11271622776985168
1696508111542051800,7.2260517578125,3.0379514694213867,0.42765533924102783,0.963506817817688
1696508111557859800,7.24185986328125,3.0581369400024414,0.5674871206283569,1.111999750137329
1696508111573698600,7.257698486328125,3.056150436401367,0.6561191082000732,0.22124648094177246
1696508111589567700,7.273567626953125,3.0128307342529297,0.5017770528793335,-0.6886762976646423
1696508111605406500,7.289406494140625,4.149626731872559,0.19302499294281006,-1.1661170721054077
1696508111621275400,7.305275390625,5.233111381530762,0.0335392951965332,-0.8494522571563721
1696508111637114000,7.321114013671875,5.238990783691406,-0.7801446914672852,-0.7945054769515991
1696508111652952800,7.336952880859375,4.399487495422363,-0.7531022429466248,0.003955423831939697
1696508111668821800,7.35282177734375,3.1800174713134766,-1.0747606754302979,-0.11538052558898926
1696508111684630000,7.368630126953125,2.470111846923828,-1.5721979141235352,-0.6863492131233215
1696508111700499200,7.384499267578125,2.4036340713500977,-2.055023431777954,-1.0183651447296143
1696508111716429300,7.40042919921875,2.96267032623291,-2.5329132080078125,-1.0944876670837402
1696508111732237300,7.4162373046875,3.398003578186035,-2.618243932723999,-1.1249816417694092
1696508111748106500,7.4321064453125,2.4192075729370117,-2.5729289054870605,-1.18343186378479
1696508111763914800,7.447914794921875,0.34401702880859375,-1.99904465675354,-0.7885342240333557
1696508111779814400,7.463814453125,-1.9688124656677246,-1.5816352367401123,-0.6781869530677795
1696508111795592000,7.479592041015625,-3.6432504653930664,-1.3931156396865845,-0.8152035474777222
1696508111811400000,7.49539990234375,-3.7946066856384277,-1.4159045219421387,-1.2243396043777466
1696508111827299600,7.511299560546875,-3.3647351264953613,-1.3259899616241455,-1.3280073404312134
1696508111843077000,7.5270771484375,-2.5036115646362305,-1.0517866611480713,-1.3777035474777222
1696508111858946300,7.5429462890625,-2.1687264442443848,-0.6782084703445435,-0.7051827907562256
1696508111874815500,7.5588154296875,-2.1696701049804688,-0.28711676597595215,0.09843143820762634
1696508111890593000,7.574593017578125,-2.4431633949279785,0.16440743207931519,0.6106554269790649
1696508111906462200,7.590462158203125,-2.9249134063720703,0.47005152702331543,0.6614704728126526
1696508111922270500,7.6062705078125,-3.3857669830322266,0.6391416192054749,0.6044667959213257
1696508111938170000,7.622170166015625,-4.0397539138793945,0.5991637110710144,0.32584765553474426
1696508111953978000,7.63797802734375,-4.366071701049805,0.531009316444397,0.21823212504386902
1696508111969755600,7.653755615234375,-3.9601640701293945,0.6421305537223816,-0.13167330622673035
1696508111985594400,7.669594482421875,-2.299323558807373,0.7832630276679993,-0.25769227743148804
1696508112001432800,7.685432861328125,-0.15665626525878906,0.5397379398345947,-0.3163031041622162
1696508112017302000,7.701302001953125,0.6200828552246094,0.6522422432899475,-0.0067046284675598145
1696508112033110300,7.7171103515625,0.9272642135620117,0.6639610528945923,0.4617271423339844
1696508112048887800,7.7328876953125,0.6290864944458008,0.9333993196487427,0.4170949459075928
1696508112064757000,7.748757080078125,0.42278289794921875,1.087647795677185,-0.12838922441005707
1696508112080565000,7.76456494140625,0.7749929428100586,1.101567268371582,-0.7815325260162354
1696508112096434200,7.78043408203125,2.0173988342285156,0.6236766576766968,-0.7299431562423706
1696508112112242200,7.7962421875,3.3555564880371094,0.4217008352279663,-0.21744902431964874
1696508112128020000,7.81202001953125,3.6527090072631836,0.2958066463470459,-0.3650517761707306
1696508112143919600,7.827919677734375,3.929745674133301,0.7650457620620728,0.15839199721813202
1696508112159758000,7.843758056640625,4.058952331542969,0.695107102394104,0.47214144468307495
1696508112175596800,7.8595966796875,3.970083236694336,0.6780344247817993,0.17249691486358643
1696508112191374300,7.875374267578125,4.222381591796875,0.15634238719940186,-0.9029238224029541
1696508112207182600,7.8911826171875,4.461512565612793,-0.29699259996414185,-1.0545045137405396
1696508112223082200,7.907082275390625,4.961325645446777,-1.272019863128662,-1.0666651725769043
1696508112238859800,7.92285986328125,5.393111228942871,-1.5526785850524902,0.0884125828742981
1696508112254667800,7.938667724609375,4.511029243469238,-1.565506100654602,0.8850083351135254
1696508112270506500,7.954506591796875,2.112473487854004,-1.4275645017623901,1.209321141242981
1696508112286345000,7.970344970703125,-0.06249809265136719,-1.302315592765808,0.917155385017395
1696508112302214100,7.986214111328125,-1.4354753494262695,-1.2135053873062134,0.47033044695854187
1696508112318022400,8.0020224609375,-2.224842071533203,-1.1476633548736572,0.14896893501281738
1696508112333922000,8.017922119140625,-2.6086506843566895,-1.1806484460830688,-0.04308982938528061
1696508112349730000,8.03372998046875,-2.4315805435180664,-1.1853975057601929,0.07794003188610077
1696508112365538300,8.049538330078125,-2.2157058715820312,-1.3075497150421143,0.3156057298183441
1696508112381438000,8.06543798828125,-2.2638044357299805,-1.1643704175949097,1.0266668796539307
1696508112397246000,8.081245849609376,-2.5950446128845215,-1.0397154092788696,1.4057012796401978
1696508112413115100,8.097115234375,-3.5045886039733887,-0.8696200251579285,0.9457929134368896
1696508112428953600,8.11295361328125,-4.063658237457275,-0.6712474226951599,0.5143072009086609
1696508112444731400,8.1287314453125,-4.1596221923828125,-0.5326555967330933,0.2792356014251709
1696508112460631000,8.144631103515625,-3.774144172668457,-0.368069589138031,0.40399450063705444
1696508112476439000,8.16043896484375,-3.4424757957458496,-0.35536062717437744,0.7586342096328735
1696508112492338700,8.176338623046876,-3.589179515838623,-0.16273534297943115,0.8548375964164734
1696508112508147000,8.19214697265625,-3.1735825538635254,-0.02654707431793213,0.6087551712989807
1696508112523955000,8.207954833984376,-2.0672292709350586,0.226476788520813,0.1681085228919983
1696508112539763000,8.223762939453126,-0.0786447525024414,0.3688734769821167,0.18973267078399658
1696508112555479600,8.2394794921875,0.9809303283691406,0.4483247995376587,0.9460462927818298
1696508112571379200,8.255379150390626,1.4114294052124023,0.4737422466278076,1.4490340948104858
1696508112587218000,8.271218017578125,1.9705696105957031,0.5257667303085327,1.3698784112930298
1696508112603087000,8.287087158203125,2.127915382385254,0.6455349922180176,0.8675549030303955
1696508112618986800,8.30298681640625,1.983119010925293,0.656980037689209,0.13841946423053741
1696508112634825200,8.3188251953125,2.13930606842041,0.3992384672164917,-0.6074175834655762
1696508112650694400,8.3346943359375,2.8902740478515625,0.1360703706741333,-1.4166243076324463
1696508112666533000,8.350533203125,3.4635019302368164,-0.06472861766815186,-1.4520189762115479
1696508112682341000,8.366341064453126,3.2323102951049805,-0.5080842971801758,-1.052182674407959
1696508112698210300,8.382210205078126,2.9657888412475586,-0.5044494867324829,-0.49920034408569336
1696508112714018300,8.398018310546876,2.9377670288085938,-0.8418087363243103,-0.6911148428916931
1696508112729918000,8.41391796875,3.1113710403442383,-1.4141138792037964,-1.02982497215271
1696508112745787100,8.429787109375,3.3648462295532227,-1.6948975324630737,-1.0899392366409302
1696508112761564700,8.445564697265626,3.0663633346557617,-1.8934335708618164,-1.2208423614501953
1696508112777433900,8.461433837890626,2.3890256881713867,-1.8632792234420776,-1.3427982330322266
1696508112793150500,8.477150390625,1.4746932983398438,-1.7041691541671753,-1.3243132829666138
1696508112809080600,8.49308056640625,0.22425079345703125,-1.342685341835022,-1.3516085147857666
1696508112824919300,8.508919189453126,-0.9078130722045898,-1.0323376655578613,-1.473610758781433
1696508112840758000,8.524758056640625,-1.4709453582763672,-0.7667078375816345,-1.7026559114456177
1696508112856596500,8.540596435546876,-1.738664150238037,-0.7663460969924927,-1.834359049797058
1696508112872404700,8.55640478515625,-1.5967473983764648,-0.7849860191345215,-1.8041378259658813
1696508112888273700,8.572273681640626,-1.4410696029663086,-0.9095603227615356,-1.311635971069336
1696508112904051500,8.588051513671875,-1.7116355895996094,-0.9404013156890869,-0.5924860239028931
1696508112919829000,8.6038291015625,-2.0284738540649414,-0.9047691822052002,0.04760241508483887
1696508112935728600,8.619728759765625,-2.331055164337158,-0.7284080982208252,0.42691999673843384
1696508112951506200,8.635506103515626,-2.635685920715332,-0.40231114625930786,0.052294254302978516
1696508112967283700,8.65128369140625,-3.2201132774353027,-0.1020016074180603,-0.4605620205402374
1696508112983092000,8.667092041015625,-3.9541072845458984,0.1542341709136963,-0.8571703433990479
1696508112998930400,8.682930419921876,-4.599542617797852,0.38058745861053467,-0.7294460535049438
1696508113014799600,8.698799560546876,-4.7348198890686035,0.5532140731811523,-0.4740946590900421
1696508113030608000,8.71460791015625,-3.7899513244628906,0.7357567548751831,-0.21736234426498413
1696508113046446300,8.7304462890625,-1.8075122833251953,0.8450567722320557,-0.07794982194900513
1696508113062315500,8.7463154296875,-0.09036540985107422,0.87713623046875,0.021257877349853516
1696508113078123500,8.76212353515625,0.9782018661499023,0.8621268272399902,-0.1803174614906311
1696508113093962200,8.777962158203126,2.0827255249023438,0.9008166790008545,-0.3076210021972656
1696508113109739800,8.79373974609375,2.674290657043457,0.7797602415084839,0.05028939247131348
1696508113125670000,8.809669921875,2.5736942291259766,0.7289438247680664,0.8477470874786377
1696508113141508600,8.825508544921876,1.525435447692871,0.6802988052368164,0.5097837448120117
1696508113157347300,8.841347412109375,1.568887710571289,0.3186737298965454,-0.613322377204895
1696508113173185800,8.857185791015626,3.491168975830078,0.2457200288772583,-0.6343914270401001
1696508113188994000,8.872994140625,5.573434829711914,0.6945481300354004,-0.029314100742340088
1696508113204893700,8.888893798828125,6.388101577758789,1.0251131057739258,-0.2611929774284363
1696508113220701700,8.90470166015625,5.2406768798828125,1.4007858037948608,-1.0251554250717163
1696508113236510000,8.920510009765625,2.9763736724853516,1.0998576879501343,-1.6154040098190308
1696508113252409600,8.93640966796875,2.016572952270508,0.42572176456451416,-1.806270718574524
1696508113268217600,8.952217529296876,2.6048574447631836,-0.44493865966796875,-1.0880333185195923
1696508113284056300,8.968056396484375,2.724553108215332,-1.217855453491211,0.2099522352218628
1696508113299925500,8.983925537109375,1.7204084396362305,-1.6431565284729004,1.2040719985961914
1696508113315733500,8.9997333984375,0.551844596862793,-1.8161039352416992,1.6757798194885254
1696508113331602700,9.015602783203125,-0.39983654022216797,-1.7837331295013428,1.6460715532302856
1696508113347441200,9.031441162109376,-0.9145326614379883,-1.8792544603347778,1.4654762744903564
1696508113363340800,9.0473408203125,-0.9568691253662109,-1.791574478149414,0.8885596394538879
1696508113379149000,9.063149169921875,-0.9430217742919922,-1.675995111465454,0.19196951389312744
1696508113394957000,9.07895703125,-1.326242446899414,-1.5636622905731201,-0.22431743144989014
1696508113410795800,9.094795654296876,-1.821596622467041,-1.3659931421279907,-0.3013869524002075
1696508113426603800,9.110603759765626,-2.434938907623291,-1.1476422548294067,-0.3078635334968567
1696508113442503400,9.12650341796875,-2.9255499839782715,-0.9117002487182617,-0.4744386076927185
1696508113458311700,9.142311767578125,-3.4260263442993164,-0.7777518630027771,-0.7806363701820374
1696508113474089200,9.158089111328126,-3.6474452018737793,-0.5282530188560486,-0.8770020008087158
1696508113489958400,9.17395849609375,-3.8585400581359863,-0.45351672172546387,-0.9039556384086609
1696508113505796900,9.189796875,-4.003070831298828,-0.26111161708831787,-0.5211618542671204
1696508113521574700,9.20557470703125,-4.246334075927734,-0.12937533855438232,-0.42719149589538574
1696508113537382700,9.221382568359376,-4.085925579071045,0.31338655948638916,-0.7407081723213196
1696508113553160200,9.23716015625,-3.6681690216064453,0.7314772605895996,-0.9303607940673828
1696508113569029400,9.253029296875,-2.780020236968994,1.046236515045166,-0.8595602512359619
1696508113584807000,9.268806884765626,-1.902167797088623,1.2425589561462402,-0.32611098885536194
1696508113600645600,9.284645751953125,-0.7214822769165039,1.295919418334961,0.11224961280822754
1696508113616545300,9.300545166015626,0.9403266906738281,1.270890235900879,0.32513660192489624
1696508113632384000,9.316384033203125,2.343358039855957,1.1225624084472656,0.6941584348678589
1696508113648222500,9.332222412109376,3.1310129165649414,0.9919512271881104,1.555023193359375
1696508113664030700,9.34803076171875,3.4485998153686523,0.7240815162658691,1.5834524631500244
1696508113679869200,9.363869140625,3.5801992416381836,0.47627365589141846,0.8737818002700806
1696508113695708000,9.3797080078125,3.5775985717773438,0.08246266841888428,0.059661924839019775
1696508113711485400,9.3954853515625,3.7481822967529297,0.12878727912902832,-0.49969416856765747
1696508113727385000,9.411385009765626,3.7526769638061523,-0.09281408786773682,0.025298476219177246
1696508113743223800,9.427223876953125,3.622821807861328,-0.2877504825592041,0.6195396184921265
1696508113759093000,9.443093017578125,3.6234359741210938,-0.7798043489456177,0.044514238834381104
1696508113774901000,9.45890087890625,4.818265914916992,-1.2035139799118042,-1.1790521144866943
1696508113790709000,9.474708984375,5.849485397338867,-1.9030205011367798,-2.1985137462615967
1696508113806639400,9.490639404296875,5.995545387268066,-2.372918128967285,-2.3351705074310303
1696508113822417000,9.5064169921875,4.440952301025391,-2.158799648284912,-1.3683409690856934
1696508113838286000,9.5222861328125,1.6116409301757812,-1.8994168043136597,-0.4791157841682434
1696508113854124500,9.53812451171875,-1.3575105667114258,-1.7555551528930664,-0.03964003920555115
1696508113869932800,9.553932861328125,-3.393054485321045,-1.4369001388549805,-0.6689192056655884
1696508113885801700,9.5698017578125,-3.800632953643799,-1.2221741676330566,-1.687880516052246
1696508113901640400,9.585640380859376,-3.385814666748047,-1.1320340633392334,-2.0263254642486572
1696508113917540000,9.6015400390625,-3.079768180847168,-1.1091554164886475,-1.709097146987915
1696508113933348400,9.617348388671875,-2.303039073944092,-0.9926111102104187,-0.5866959095001221
1696508113949126000,9.6331259765625,-1.583521842956543,-0.659088134765625,0.6262229084968567
1696508113964934000,9.648933837890626,-1.3875856399536133,-0.3294595181941986,1.0371840000152588
1696508113980772600,9.664772705078125,-2.242997169494629,-0.0015080571174621582,0.532747745513916
1696508113996641800,9.680641845703125,-2.964254856109619,0.2389392852783203,-0.04186731576919556
1696508114012480300,9.696480224609376,-3.95556640625,0.28651243448257446,-0.388644814491272
1696508114028319000,9.712319091796875,-4.594991683959961,0.3743244409561157,-0.3503890037536621
1696508114044157400,9.728157470703126,-5.004718780517578,0.6150926351547241,-0.12384670972824097
1696508114059965700,9.743965576171876,-4.831539630889893,0.5129105448722839,0.12246209383010864
1696508114075804400,9.759804443359375,-3.6317315101623535,0.47261953353881836,0.1403893232345581
1696508114091612400,9.7756123046875,-1.5519189834594727,0.5845087170600891,0.02890157699584961
1696508114107420400,9.79142041015625,-0.041500091552734375,0.6670325398445129,0.30879807472229004
1696508114123320000,9.807320068359376,0.8396387100219727,0.8109089136123657,0.18468570709228516
1696508114139067100,9.823067138671876,0.96551513671875,1.1579692363739014,-0.08171701431274414
1696508114154936300,9.838936279296876,1.7876806259155273,1.0949532985687256,0.11120843887329102
1696508114170775000,9.854775146484375,2.9405879974365234,0.685645580291748,0.2633706331253052
1696508114186644200,9.870644287109375,3.7909164428710938,0.28710174560546875,0.06661009788513184
1696508114202482700,9.886482666015626,4.092562675476074,-0.37654316425323486,-0.12472808361053467
1696508114218321400,9.9023212890625,4.612583160400391,-0.6684238910675049,0.22178876399993896
1696508114234190600,9.918190673828125,5.664423942565918,-0.40531110763549805,0.38898801803588867
1696508114250059800,9.934059814453125,6.2375640869140625,-0.030909419059753418,0.6270097494125366
1696508114265837300,9.94983740234375,5.1382598876953125,0.01697826385498047,0.1599940061569214
1696508114281706500,9.96570654296875,3.5813121795654297,-0.42133498191833496,0.04276728630065918
1696508114297514500,9.981514404296876,2.911036491394043,-0.9890971183776855,0.3412497043609619
1696508114313383700,9.9973837890625,2.822585105895996,-1.3951131105422974,0.5080307722091675
1696508114329191700,10.013191650390626,1.8529081344604492,-1.8288127183914185,1.1870343685150146
1696508114344969200,10.02896923828125,0.4222383499145508,-2.2814652919769287,1.6459596157073975
1696508114360808000,10.044807861328126,-0.5105428695678711,-2.3899717330932617,1.37733793258667
1696508114376646700,10.060646728515625,-0.9778985977172852,-2.2170369625091553,0.947246789932251
1696508114392424200,10.076424072265626,-1.5884747505187988,-2.0790388584136963,0.7048813104629517
1696508114408232200,10.092232177734376,-1.854722499847412,-1.9018973112106323,0.2888983488082886
1696508114424071000,10.10807080078125,-1.7781758308410645,-1.6321214437484741,-0.28806954622268677
1696508114439940000,10.123940185546875,-1.915766716003418,-1.351637840270996,-0.8301920294761658
1696508114455748000,10.139748046875,-1.6352882385253906,-0.9990776777267456,-1.311141848564148
1696508114471586800,10.1555869140625,-1.2928476333618164,-0.77940833568573,-1.2819643020629883
1696508114487394800,10.171394775390626,-1.47698974609375,-0.5851629972457886,-1.2996156215667725
1696508114503203000,10.187203125,-2.0302562713623047,-0.3970780372619629,-1.2827634811401367
1696508114519041500,10.20304150390625,-3.1655850410461426,-0.2833446264266968,-1.1926387548446655
1696508114534788600,10.21878857421875,-4.14885139465332,-0.33670246601104736,-1.2017892599105835
1696508114550688300,10.234688232421876,-4.39541482925415,-0.2820357084274292,-1.1815704107284546
1696508114566496500,10.25049658203125,-3.92214298248291,-0.3328123092651367,-0.7916032671928406
1696508114582335000,10.2663349609375,-4.092901706695557,-0.3145395517349243,-0.48432260751724243
1696508114598204200,10.2822041015625,-4.55466890335083,-0.22241652011871338,-0.20620089769363403
1696508114614043000,10.29804296875,-4.5414652824401855,-0.3353770971298218,-0.46546199917793274
1696508114629912000,10.313912109375,-1.6022415161132812,-0.20774435997009277,-0.47452375292778015
1696508114645781000,10.329781005859376,1.8222198486328125,0.0935978889465332,0.042904555797576904
1696508114661589200,10.34558935546875,3.472865104675293,0.39882850646972656,1.056673526763916
1696508114677519400,10.361519287109376,3.326235771179199,0.7629858255386353,1.3656253814697266
1696508114693361000,10.37736083984375,2.6818408966064453,1.0553278923034668,1.1237189769744873
1696508114709199600,10.39319970703125,2.372981071472168,0.9851235151290894,1.076451063156128
1696508114725038300,10.409038330078126,2.9145126342773438,0.6880909204483032,0.8653530478477478
1696508114740876800,10.424876708984375,3.871546745300293,0.3108142614364624,0.7160664796829224
1696508114756776400,10.4407763671875,5.181064605712891,0.28351759910583496,0.8885111808776855
1696508114772584700,10.456584716796876,5.259498596191406,0.039559006690979004,1.1874403953552246
1696508114788514800,10.472514892578126,4.287110328674316,-0.3077274560928345,0.7323157787322998
1696508114804292400,10.488292236328125,2.5505123138427734,-1.2568022012710571,-0.8941701650619507
1696508114820100400,10.504100341796875,2.272587776184082,-2.2937633991241455,-2.2809009552001953
1696508114836000300,10.520000244140626,3.4946365356445312,-2.945087432861328,-1.7991459369659424
1696508114851838700,10.535838623046875,4.684748649597168,-3.8444647789001465,-1.1149837970733643
1696508114867738400,10.55173828125,4.429622650146484,-3.4577507972717285,-0.051474690437316895
1696508114883577000,10.5675771484375,1.9728507995605469,-3.0263009071350098,-0.028667807579040527
1696508114899415600,10.58341552734375,-0.9270038604736328,-2.542236328125,-0.540123462677002
1696508114915254300,10.599254150390625,-3.36167573928833,-2.022801637649536,-1.371658444404602
1696508114931062300,10.615062255859375,-4.039840221405029,-1.6610898971557617,-1.934933066368103
1696508114946931500,10.630931396484375,-3.719510078430176,-1.6511119604110718,-1.8896169662475586
1696508114962770200,10.646770263671876,-3.031475067138672,-1.6661529541015625,-1.5067126750946045
1696508114978639400,10.662639404296876,-2.024564743041992,-1.5062692165374756,-0.898348867893219
1696508114994508500,10.678508544921876,-1.4995946884155273,-1.094136357307434,-0.3251989781856537
1696508115010316500,10.694316650390626,-1.6273298263549805,-0.6696747541427612,-0.5551275014877319
1696508115026155300,10.7101552734375,-1.9644474983215332,-0.2581139802932739,-1.401339054107666
1696508115041902300,10.72590234375,-2.2978429794311523,0.05879288911819458,-2.070040225982666
1696508115057740800,10.74174072265625,-2.6742806434631348,0.04200756549835205,-1.56687331199646
1696508115073488000,10.75748779296875,-3.391549587249756,-0.1385049819946289,-0.9720512628555298
1696508115089265400,10.773265380859375,-3.8480172157287598,-0.21141111850738525,-0.12817955017089844
1696508115105165000,10.7891650390625,-3.814398765563965,-0.37722206115722656,0.30392682552337646
1696508115120973300,10.804973388671876,-2.686931610107422,-0.36205554008483887,0.394057035446167
1696508115136781300,10.82078125,-1.3393278121948242,-0.23251652717590332,0.388643741607666
1696508115152620000,10.8366201171875,-0.9617290496826172,0.10725098848342896,0.39540863037109375
1696508115168397600,10.8523974609375,-0.8250484466552734,0.41923272609710693,-0.027622461318969727
1696508115184297200,10.868297119140625,-0.019591331481933594,0.9272452592849731,-0.7428092956542969
1696508115200166400,10.88416650390625,0.5751867294311523,1.2748934030532837,-0.9185574650764465
1696508115215944000,10.89994384765625,2.0338382720947266,0.9885013103485107,0.18343937397003174
1696508115231782700,10.91578271484375,2.4194326400756836,0.6470729112625122,0.8158328533172607
1696508115247560200,10.931560302734376,2.4789390563964844,0.038268327713012695,0.19542443752288818
1696508115263459800,10.9474599609375,3.3135452270507812,-0.5440847277641296,-0.6400715708732605
1696508115279298600,10.963298583984376,4.756222724914551,-0.5656141042709351,-0.42711979150772095
1696508115295137000,10.979136962890625,5.550726890563965,-0.23513954877853394,0.40466368198394775
1696508115311006200,10.995006103515625,4.592987060546875,0.2542514204978943,0.8576984405517578
1696508115326845000,11.010844970703126,3.432734489440918,0.27650362253189087,-0.1697559356689453
1696508115342744600,11.02674462890625,3.2181215286254883,-0.14431101083755493,-0.9224093556404114
1696508115358552600,11.042552490234375,3.6785717010498047,-0.9681001901626587,-1.1236552000045776
1696508115374391300,11.058391357421876,3.801192283630371,-1.9199585914611816,-0.5363913178443909
1696508115390260500,11.074260498046876,4.05147647857666,-2.7404212951660156,0.5142015218734741
1696508115406068500,11.090068359375,3.602447509765625,-3.067315101623535,1.476175308227539
1696508115421968100,11.105968017578125,2.279200553894043,-3.1575927734375,1.4630833864212036
1696508115437776400,11.1217763671875,1.0168609619140625,-2.829123020172119,1.1518323421478271
1696508115453554000,11.137553955078126,-0.13329124450683594,-2.4276444911956787,0.4206274747848511
1696508115469453600,11.15345361328125,-1.665389060974121,-1.8594694137573242,-0.4083517789840698
1696508115485231000,11.169231201171876,-3.2562456130981445,-1.5838451385498047,-0.7223726511001587
1696508115501069800,11.18506982421875,-3.855546474456787,-1.2948400974273682,-0.6457980275154114
1696508115516877800,11.2008779296875,-3.1345481872558594,-1.0501437187194824,-0.3924979567527771
1696508115532685800,11.216685791015625,-2.2193784713745117,-0.9079661965370178,-0.33122217655181885
1696508115548585500,11.23258544921875,-1.9317922592163086,-0.5982450246810913,-0.8806975483894348
1696508115564393700,11.248393798828126,-2.62900447845459,-0.3894060254096985,-1.2774631977081299
1696508115580263000,11.264262939453126,-3.6195716857910156,-0.30905580520629883,-1.3500069379806519
1696508115596101400,11.280101318359375,-4.249813556671143,-0.3433559834957123,-0.9200295209884644
1696508115611940000,11.295940185546876,-4.263648986816406,-0.38912534713745117,-0.4918038249015808
1696508115627839700,11.31183984375,-4.603034973144531,-0.25267893075942993,-0.3635815978050232
1696508115643617300,11.3276171875,-4.9606709480285645,0.01738375425338745,-0.15367978811264038
1696508115659547400,11.34354736328125,-5.135659694671631,0.33527493476867676,0.4651601314544678
1696508115675477800,11.359477783203126,-5.005423069000244,0.29847216606140137,0.44661903381347656
1696508115691285800,11.37528564453125,-1.3890724182128906,0.19258952140808105,0.23529356718063354
1696508115707155000,11.391155029296876,3.4052906036376953,0.14078962802886963,0.4400521516799927
1696508115722932500,11.406932373046875,5.341727256774902,0.21761798858642578,1.193932056427002
1696508115738801700,11.4228017578125,4.941629409790039,0.48074597120285034,1.8885163068771362
1696508115754670800,11.4386708984375,3.8016176223754883,0.8643075227737427,1.3949469327926636
1696508115770509300,11.45450927734375,2.7437944412231445,1.1087702512741089,0.7861642837524414
1696508115786378500,11.47037841796875,2.715343475341797,1.079417109489441,-0.6899726390838623
1696508115802156000,11.486156005859375,3.4892654418945312,0.7631527185440063,-1.5260945558547974
1696508115817994800,11.501994873046876,4.6531219482421875,0.3394784927368164,-0.8209822177886963
1696508115833802800,11.517802734375,5.281624794006348,0.10303831100463867,-0.09621849656105042
1696508115849580500,11.53358056640625,5.199093818664551,-0.07845163345336914,-0.08063042163848877
1696508115865480200,11.549480224609376,3.2482309341430664,-0.4817746877670288,-0.7150105237960815
1696508115881288200,11.5652880859375,1.4092588424682617,-1.172971487045288,-1.3625543117523193
1696508115897096400,11.581096435546876,1.2651166915893555,-1.7595124244689941,-1.4120550155639648
1696508115912935000,11.596934814453125,2.1225194931030273,-2.5034310817718506,-1.0222152471542358
1696508115928773600,11.612773681640626,3.1245250701904297,-3.109525680541992,-0.6390626430511475
1696508115944642800,11.628642822265626,3.159252166748047,-3.2138819694519043,-0.31520724296569824
1696508115960450800,11.644450927734376,1.6037559509277344,-2.897327423095703,-0.4303121566772461
1696508115976320000,11.660320068359376,-1.1534299850463867,-2.4256813526153564,-0.9832689166069031
1696508115992128000,11.6761279296875,-3.44364070892334,-1.895520567893982,-1.5330991744995117
1696508116007936300,11.691936279296876,-4.555411338806152,-1.7348979711532593,-2.0641233921051025
1696508116023744300,11.707744140625,-4.312560558319092,-1.568369746208191,-1.7275021076202393
1696508116039521800,11.723521728515625,-2.81467866897583,-1.3827515840530396,-1.1348073482513428
1696508116055360500,11.739360595703126,-1.2562999725341797,-1.2064814567565918,-0.2779984772205353
1696508116071229700,11.755229736328126,-0.10787010192871094,-0.9546476006507874,0.3058897852897644
1696508116087037700,11.77103759765625,-1.2448081970214844,-0.6582290530204773,0.05670344829559326
1696508116102967800,11.7869677734375,-2.9928159713745117,-0.4238058924674988,-0.8304440975189209
1696508116118776000,11.802776123046876,-4.805269718170166,-0.32674431800842285,-0.8865313529968262
1696508116134675700,11.81867578125,-5.6584954261779785,-0.41106748580932617,-0.4193519651889801
1696508116150514200,11.83451416015625,-5.745927333831787,-0.3131595849990845,0.2139524221420288
1696508116166322400,11.850322509765626,-5.754594326019287,-0.2502260208129883,0.79397052526474
1696508116182222000,11.86622216796875,-4.834725379943848,-0.023463010787963867,0.9637303948402405
1696508116197999600,11.88199951171875,-3.810533046722412,0.05558621883392334,0.027191877365112305
1696508116213899300,11.897899169921875,-0.6340131759643555,0.05492401123046875,-0.7660742998123169
1696508116229707500,11.91370751953125,1.3745698928833008,0.23358333110809326,-0.6940580010414124
1696508116245515500,11.929515625,1.4688405990600586,0.29784464836120605,0.014920830726623535
1696508116261354200,11.945354248046876,0.3128232955932617,0.5571539402008057,0.5973862409591675
1696508116277162200,11.961162353515626,0.4223604202270508,0.7270164489746094,0.5045014023780823
1696508116293031400,11.977031494140626,2.258530616760254,0.42802441120147705,0.018401622772216797
1696508116308839400,11.99283935546875,3.953415870666504,-0.2024151086807251,-0.6070061326026917
1696508116324617000,12.008616943359375,5.492362976074219,-0.49519699811935425,-1.389930009841919
1696508116340455700,12.02445556640625,6.765135765075684,-0.07824885845184326,-1.396077275276184
1696508116356263700,12.040263671875,6.386621475219727,0.8947598934173584,-1.6973838806152344
1696508116372102400,12.056102294921875,3.4119958877563477,1.6012606620788574,-2.3663346767425537
1696508116387941000,12.071941162109376,1.0858192443847656,1.3476802110671997,-1.7332038879394531
1696508116403749000,12.0877490234375,1.5485553741455078,0.27226829528808594,-1.1519827842712402
1696508116419648800,12.103648681640625,4.075794219970703,-1.0975924730300903,-0.9168200492858887
1696508116435395800,12.119395751953125,6.133270263671875,-2.4512863159179688,0.1966913342475891
1696508116451265000,12.13526513671875,6.245321273803711,-3.275320053100586,2.4714977741241455
1696508116467103700,12.151103759765626,4.755280494689941,-3.5428361892700195,3.2942395210266113
1696508116482911700,12.166911865234376,1.7117671966552734,-3.3791048526763916,2.9825291633605957
1696508116498658800,12.182658935546876,-0.5320615768432617,-2.9905776977539062,2.0044164657592773
1696508116514497500,12.19849755859375,-1.6648330688476562,-2.584972381591797,1.2483330965042114
1696508116530397200,12.214397216796876,-1.6940584182739258,-2.2067039012908936,0.634212076663971
1696508116546205200,12.230205078125,-1.339085578918457,-2.0127007961273193,0.40638911724090576
1696508116562013400,12.246013427734376,-0.8664445877075195,-1.7585935592651367,0.37046223878860474
1696508116577852000,12.261851806640625,-0.899775505065918,-1.307137131690979,-0.15709137916564941
1696508116593660200,12.27766015625,-1.6332464218139648,-0.968275249004364,-0.4483559727668762
1696508116609498600,12.29349853515625,-2.6193642616271973,-0.53226637840271,-0.34021371603012085
1696508116625337300,12.30933740234375,-4.0888495445251465,-0.27845674753189087,-0.10690498352050781
1696508116641145300,12.325145263671875,-5.236677169799805,-0.18030434846878052,-0.3888000249862671
1696508116656953600,12.34095361328125,-5.868189811706543,-0.14950573444366455,-1.0547806024551392
1696508116672700700,12.35670068359375,-4.766757011413574,-0.3850625157356262,-1.434523344039917
1696508116688661200,12.3726611328125,-2.649867057800293,-0.32408249378204346,-1.053542137145996
1696508116704469200,12.38846923828125,-2.9978747367858887,-0.32672637701034546,-0.24628648161888123
1696508116720308000,12.404307861328125,-4.2939019203186035,-0.24997496604919434,0.5897119045257568
1696508116736207600,12.42020751953125,-5.27108097076416,-0.11312580108642578,0.38345766067504883
1696508116752046300,12.43604638671875,-3.8631253242492676,0.37556004524230957,0.10150104761123657
1696508116767915500,12.45191552734375,-0.16834640502929688,0.6488332748413086,-0.0098954439163208
1696508116783754000,12.46775390625,1.8789262771606445,0.7781243324279785,0.3615676760673523
1696508116799562200,12.483562255859376,2.960256576538086,0.939698338508606,1.2447726726531982
1696508116815431200,12.49943115234375,3.819340705871582,1.092760682106018,1.66280996799469
1696508116831239400,12.515239501953126,3.9963197708129883,1.3037410974502563,1.4597012996673584
1696508116847169500,12.53116943359375,3.5931358337402344,1.3444279432296753,0.670700192451477
1696508116862947000,12.546947021484375,3.395832061767578,1.392490267753601,-0.050094932317733765
1696508116878785800,12.562785888671876,4.138675689697266,1.3531845808029175,-0.6973452568054199
1696508116894655000,12.578655029296876,4.74437141418457,1.3788386583328247,-0.799813449382782
1696508116910432500,12.5944326171875,4.771945953369141,0.9460206031799316,-1.1561238765716553
1696508116926271200,12.610271240234376,4.635678291320801,-0.23898732662200928,-2.618424415588379
1696508116942079200,12.626079345703126,4.81558895111084,-1.6243486404418945,-2.7950191497802734
1696508116957887200,12.64188720703125,5.387324333190918,-3.0670433044433594,-1.0318528413772583
1696508116973726000,12.657725830078125,5.665807723999023,-3.805575370788574,0.5928345918655396
1696508116989534000,12.673533935546875,3.4937658309936523,-3.8263421058654785,0.7973066568374634
1696508117005433600,12.68943359375,0.7738742828369141,-3.2529335021972656,-0.291891872882843
1696508117021272300,12.705272216796875,-2.2746362686157227,-2.54264760017395,-1.7411112785339355
1696508117037080600,12.72108056640625,-4.3407158851623535,-2.1087067127227783,-2.139103889465332
1696508117052949500,12.736949462890625,-4.654948711395264,-1.9124336242675781,-1.810497522354126
1696508117068757800,12.7527578125,-3.9309568405151367,-1.73514986038208,-1.199658989906311
1696508117084657400,12.768657470703126,-2.504660129547119,-1.6952073574066162,-0.6466042399406433
1696508117100526600,12.784526611328126,-0.7630128860473633,-1.4390333890914917,-0.12150532007217407
1696508117116365000,12.800364990234375,-0.40581607818603516,-1.2095310688018799,-0.1321607232093811
1696508117132295400,12.81629541015625,-0.691218376159668,-0.740044116973877,-0.5963992476463318
1696508117148134000,12.8321337890625,-2.0778613090515137,-0.42498892545700073,-0.9395552277565002
1696508117164003000,12.848003173828126,-4.004937648773193,-0.1287682056427002,-0.6900739073753357
1696508117179780600,12.863780517578125,-5.386385440826416,-0.09176886081695557,-0.396320104598999
1696508117195588900,12.8795888671875,-5.439774990081787,-0.15952157974243164,-0.36147958040237427
1696508117211457800,12.895457763671875,-4.859447002410889,-0.36518120765686035,-0.11997190117835999
1696508117227296500,12.911296630859376,-4.063466548919678,-0.4776543378829956,0.03370821475982666
1696508117243196200,12.927196044921875,-2.775270462036133,-0.25328850746154785,-0.11041122674942017
1696508117259004200,12.943004150390625,-2.3988261222839355,0.17653393745422363,-0.4501188397407532
1696508117274751200,12.958751220703125,-1.783841609954834,0.7139419317245483,-1.0511574745178223
1696508117290681600,12.974681640625,-2.0355052947998047,0.9598056077957153,-1.4478645324707031
1696508117306459100,12.990459228515626,-1.047698974609375,1.3036229610443115,-1.2615388631820679
1696508117322328300,13.006328369140626,0.5826845169067383,1.1341631412506104,-0.8890491724014282
1696508117338166800,13.022166748046875,3.2762250900268555,0.6720072031021118,0.09907525777816772
1696508117354005500,13.038005615234376,5.452199935913086,-0.0849149227142334,0.9184962511062622
1696508117369874700,13.053874755859376,6.043066024780273,-0.534589409828186,1.2384850978851318
1696508117385713200,13.069713134765625,6.887126922607422,-0.5780397057533264,0.6733977794647217
1696508117401582300,13.085582275390625,8.054780006408691,0.282321572303772,0.6544796228408813
1696508117417421000,13.101421142578126,7.707685470581055,1.6276706457138062,1.5831011533737183
1696508117433229000,13.11722900390625,4.802552223205566,2.4105491638183594,0.04484570026397705
1696508117449159400,13.133159423828126,1.2187433242797852,2.016453742980957,-2.7079925537109375
1696508117464937000,13.14893701171875,0.5322504043579102,0.27146077156066895,-2.710496425628662
1696508117480775400,13.164775390625,2.2185211181640625,-1.630495309829712,-0.5197080969810486
1696508117496614100,13.1806142578125,3.4983673095703125,-3.346566677093506,2.0317041873931885
1696508117512391700,13.1963916015625,3.6071577072143555,-3.9100089073181152,3.3754382133483887
1696508117528260900,13.2122607421875,2.253141403198242,-4.0424323081970215,2.9697153568267822
1696508117544038400,13.228038330078125,0.45712757110595703,-3.5887627601623535,1.953369140625
1696508117559907600,13.243907470703125,-1.8225550651550293,-3.0745625495910645,1.0210176706314087
1696508117575746300,13.259746337890626,-2.6569323539733887,-2.52522873878479,0.8441238403320312
1696508117591554300,13.27555419921875,-2.4724135398864746,-1.973325252532959,0.47878777980804443
1696508117607423500,13.291423583984376,-1.7323455810546875,-1.352644681930542,-0.27324509620666504
1696508117623201000,13.307200927734375,-1.3502731323242188,-0.9082290530204773,-1.0343376398086548
1696508117639100700,13.3231005859375,-1.7657008171081543,-0.680072009563446,-1.3915085792541504
1696508117654909000,13.338908935546876,-2.837226390838623,-0.578673243522644,-1.3331228494644165
1696508117670808600,13.35480859375,-4.214415073394775,-0.6983237266540527,-0.8506092429161072
1696508117686708200,13.370708251953126,-4.889407157897949,-0.7674218416213989,-0.31149351596832275
1696508117702455300,13.386455322265626,-4.452789306640625,-0.6655486822128296,0.3618813753128052
1696508117718324200,13.40232421875,-4.272767066955566,-0.589055061340332,0.6654597520828247
1696508117734163000,13.418162841796875,-4.529324054718018,-0.41910815238952637,0.687995433807373
1696508117749971200,13.43397119140625,-5.268405914306641,-0.0915374755859375,0.40428876876831055
1696508117765870800,13.449870849609376,-5.669751167297363,0.3157203197479248,-0.002018570899963379
1696508117781709300,13.465709228515625,-5.184430122375488,0.27706480026245117,-0.2790271043777466
1696508117797578500,13.48157861328125,-2.5563626289367676,0.22523963451385498,-0.37167319655418396
1696508117813417200,13.497417236328126,1.1443157196044922,0.29415297508239746,-0.14456701278686523
1696508117829225200,13.51322509765625,3.5573959350585938,0.41295909881591797,0.9403274655342102
1696508117845124900,13.529124755859375,4.300599098205566,0.8176748156547546,1.5200175046920776
1696508117860902400,13.54490234375,4.147843360900879,1.133434772491455,0.8902835249900818
1696508117876680200,13.56068017578125,4.211106300354004,1.48923659324646,-0.6911299824714661
1696508117892488200,13.57648828125,4.656885147094727,1.5446934700012207,-1.2449300289154053
1696508117908296200,13.592296142578125,5.404026031494141,1.1644444465637207,-0.9652266502380371
1696508117924195800,13.60819580078125,6.858700752258301,0.6499266624450684,-0.5323539972305298
1696508117939973600,13.6239736328125,7.4482269287109375,0.3787393569946289,-0.3895711898803711
1696508117955842600,13.639842529296875,6.226431846618652,0.11266613006591797,-0.7206723093986511
1696508117971681300,13.655681396484376,3.60201358795166,-0.22444868087768555,-1.6065607070922852
1696508117987520000,13.67152001953125,1.090205192565918,-1.174405813217163,-2.530437469482422
1696508118003358500,13.6873583984375,0.4452390670776367,-2.2759857177734375,-2.120147466659546
1696508118019136000,13.703135986328125,0.43632030487060547,-3.1811156272888184,-1.4033474922180176
1696508118035066400,13.71906640625,1.1767940521240234,-3.9407567977905273,-0.3384731411933899
1696508118050935600,13.734935546875,1.8638486862182617,-3.8121490478515625,-0.08421218395233154
1696508118066713000,13.750713134765626,1.3275747299194336,-3.203195333480835,-0.8306816816329956
1696508118082551600,13.766551513671875,-0.5516204833984375,-2.3287415504455566,-1.3520872592926025
1696508118098603800,13.782603759765625,-2.5823397636413574,-1.6155776977539062,-1.6897101402282715
1696508118114473000,13.798472900390625,-3.6489930152893066,-1.3970141410827637,-1.4027273654937744
1696508118130311700,13.814311767578126,-3.4216675758361816,-1.0701377391815186,-1.267319679260254
1696508118146119700,13.83011962890625,-3.142362594604492,-1.003747820854187,-0.8682267069816589
1696508118161988900,13.84598876953125,-1.7516651153564453,-0.7603824138641357,0.09249413013458252
1696508118177827600,13.86182763671875,-0.544464111328125,-0.6161512136459351,0.6075276136398315
1696508118193727200,13.877727294921876,-0.4176769256591797,-0.30811893939971924,0.2848062515258789
1696508118209535200,13.89353515625,-1.7732200622558594,-0.08731019496917725,-0.18574094772338867
1696508118225343500,13.909343505859376,-3.3766422271728516,-0.0012065768241882324,-0.350197434425354
1696508118241182000,13.925181884765625,-5.290050983428955,-0.08876025676727295,-0.4927740693092346
1696508118257020700,13.941020751953126,-6.051673889160156,-0.17959505319595337,-0.27868473529815674
1696508118272920300,13.95692041015625,-6.074302673339844,-0.34440892934799194,0.039307355880737305
1696508118288759000,13.972759033203126,-5.811844825744629,-0.38912642002105713,-0.05579221248626709
1696508118304536600,13.98853662109375,-4.47238826751709,-0.2572696805000305,-0.2020500898361206
1696508118320405800,14.00440576171875,-2.06795597076416,-0.08933019638061523,-0.539393424987793
1696508118336213800,14.0202138671875,0.719965934753418,0.1880805492401123,-0.7992401123046875
1696508118352083000,14.0360830078125,2.9796743392944336,0.5373060703277588,-0.7757453918457031
1696508118367921400,14.05192138671875,3.4702224731445312,0.9734702110290527,-0.02550220489501953
1696508118383668500,14.06766845703125,2.558818817138672,1.1546852588653564,0.2463676929473877
1696508118399568100,14.083568115234375,1.8066043853759766,0.8564485311508179,-0.22893428802490234
1696508118415346000,14.099345947265626,3.1825809478759766,0.0877155065536499,-0.9971805214881897
1696508118431245600,14.11524560546875,6.289394378662109,-0.4952354431152344,-1.1127821207046509
1696508118447053600,14.131053466796875,9.130536079406738,0.08794796466827393,-0.08956313133239746
1696508118462922800,14.1469228515625,8.662824630737305,1.2142837047576904,-0.221893310546875
1696508118478792000,14.1627919921875,4.958688735961914,1.9839212894439697,-1.4539381265640259
1696508118494539000,14.1785390625,1.1745233535766602,1.771365761756897,-2.105701208114624
1696508118510469000,14.19446923828125,-0.15866661071777344,0.2948310375213623,-1.4125176668167114
1696508118526246700,14.21024658203125,0.9588127136230469,-1.7382471561431885,0.2752361297607422
1696508118542085400,14.22608544921875,2.110933303833008,-3.8536901473999023,2.811173677444458
1696508118557893400,14.241893310546875,3.70904541015625,-4.46312141418457,5.145030975341797
1696508118573701600,14.25770166015625,3.4223852157592773,-4.586516857147217,5.067322731018066
1696508118589692700,14.273692626953125,2.0336809158325195,-4.1642045974731445,3.6051275730133057
1696508118605501000,14.2895009765625,0.08516597747802734,-3.1877400875091553,2.1526291370391846
1696508118621278500,14.305278564453126,-2.0150389671325684,-2.199216842651367,0.6912121772766113
1696508118637147600,14.321147705078126,-3.1748805046081543,-1.239609718322754,-1.5332387685775757
1696508118652925200,14.33692529296875,-3.0692853927612305,-0.5216560959815979,-2.8256685733795166
1696508118668824800,14.352824951171876,-2.093048572540283,-0.24506181478500366,-3.230006694793701
1696508118684632800,14.3686328125,-1.0965843200683594,-0.17372941970825195,-3.214099168777466
1696508118700441000,14.384441162109376,-1.0787200927734375,-0.2803022265434265,-2.779176950454712
1696508118716310300,14.400310302734376,-1.5840396881103516,-0.3673759698867798,-2.045823574066162
1696508118732118300,14.4161181640625,-2.3278307914733887,-0.5008758306503296,-1.7521334886550903
1696508118748079000,14.4320791015625,-3.575221538543701,-0.42602574825286865,-2.003307342529297
1696508118763856600,14.447856689453126,-4.749836444854736,-0.32445627450942993,-1.7078317403793335
1696508118779725800,14.463725830078126,-6.084094047546387,-0.09606778621673584,-1.0556652545928955
1696508118795625500,14.47962548828125,-6.939949989318848,0.036403536796569824,-0.7007499933242798
1696508118811525000,14.495525146484376,-6.992274284362793,0.2075272798538208,-0.2548377513885498
1696508118827424800,14.5114248046875,-6.269207954406738,0.22653353214263916,-0.17626190185546875
1696508118843263200,14.52726318359375,-4.0464582443237305,0.28452980518341064,0.2887784242630005
1696508118859102000,14.54310205078125,-1.0225028991699219,-0.010440468788146973,0.36395692825317383
1696508118875001600,14.559001708984376,2.7490081787109375,0.057054758071899414,0.6181498169898987
1696508118890840300,14.57484033203125,4.581393241882324,0.287312388420105,1.2921305894851685
1696508118906617900,14.590617919921876,4.5303802490234375,0.4602081775665283,1.530876874923706
1696508118922425900,14.60642578125,4.289481163024902,0.8407204151153564,1.0873732566833496
1696508118938264600,14.6222646484375,4.38034725189209,0.9779633283615112,0.053619980812072754
1696508118954103000,14.63810302734375,5.459039688110352,1.0411770343780518,-1.219763994216919
1696508118969911300,14.653911376953126,7.216753959655762,1.0079624652862549,-1.7888926267623901
1696508118985811000,14.66981103515625,7.825594902038574,1.1525628566741943,-1.6822408437728882
1696508119001588500,14.68558837890625,6.576744079589844,0.7337526082992554,-1.4261999130249023
1696508119017457700,14.701457763671876,4.3108367919921875,0.233536958694458,-1.3719708919525146
1696508119033326800,14.717326904296876,1.549910545349121,-0.75372314453125,-2.2993857860565186
1696508119049104400,14.7331044921875,0.9372425079345703,-1.8726806640625,-2.014211893081665
1696508119064943000,14.748943115234376,1.591935157775879,-2.891533374786377,-1.2112677097320557
1696508119080720600,14.764720703125,1.3444461822509766,-3.5929782390594482,-0.5312715768814087
1696508119096620300,14.780620361328126,0.8261518478393555,-3.5483200550079346,-0.3384403586387634
1696508119112489500,14.796489501953126,-0.0769357681274414,-2.977419853210449,-0.3386150002479553
1696508119128297500,14.81229736328125,-1.7434172630310059,-2.017457962036133,-1.1364079713821411
1696508119144166700,14.828166748046876,-3.35969877243042,-1.3724126815795898,-1.8178147077560425
1696508119160005400,14.84400537109375,-4.440642356872559,-1.363691806793213,-1.8277809619903564
1696508119175813400,14.8598134765625,-4.051897048950195,-1.4271742105484009,-1.4337670803070068
1696508119191682600,14.8756826171875,-2.2683777809143066,-1.636998176574707,-0.5330668091773987
1696508119207490600,14.891490478515625,0.17678546905517578,-1.5743857622146606,0.2392878532409668
1696508119223359700,14.90735986328125,0.6294088363647461,-1.3230502605438232,0.6744400262832642
1696508119239198500,14.923198486328126,-0.7149858474731445,-0.9521475434303284,0.691643238067627
1696508119255037000,14.939036865234375,-2.595844268798828,-0.6428004503250122,0.5190882682800293
1696508119270936600,14.9549365234375,-3.969285488128662,-0.5684062838554382,0.21168547868728638
1696508119286744800,14.970744873046876,-4.599987983703613,-0.6354881525039673,0.2845679521560669
1696508119302644500,14.98664453125,-3.978209972381592,-0.7252241969108582,1.0448282957077026
1696508119318422000,15.002422119140626,-2.837130069732666,-0.6746740341186523,1.624076008796692
1696508119334291200,15.018291259765626,-2.681697368621826,-0.4797173738479614,1.2370185852050781
1696508119350190800,15.03419091796875,-3.497887134552002,-0.0827261209487915,0.08491307497024536
1696508119365998800,15.049998779296875,-4.1384053230285645,0.38138890266418457,-1.1390867233276367
1696508119381868000,15.065867919921875,-2.3852667808532715,0.49024081230163574,-0.6773593425750732
1696508119397706800,15.081706787109376,0.48554134368896484,0.5660239458084106,0.30504560470581055
1696508119413545200,15.097545166015625,2.882828712463379,0.7200577259063721,0.5174144506454468
1696508119429475600,15.1134755859375,3.458376884460449,0.7296704053878784,0.11984395980834961
1696508119445283600,15.12928369140625,2.4876937866210938,0.6545670032501221,-0.3620859384536743
1696508119461183200,15.145183349609376,2.293344497680664,0.5313633680343628,-1.8872458934783936
1696508119477022000,15.16102197265625,3.4963064193725586,0.2501472234725952,-2.300909996032715
1696508119492860400,15.1768603515625,6.320876121520996,0.3663061857223511,-1.4149686098098755
1696508119508729600,15.1927294921875,8.356122016906738,1.0258049964904785,-0.23289573192596436
1696508119524537900,15.208537841796876,7.565452575683594,2.0825343132019043,0.30970942974090576
1696508119540437500,15.2244375,3.963979721069336,2.1202216148376465,-0.7318103313446045
1696508119556245500,15.24024560546875,2.069727897644043,1.0332345962524414,-0.7126121520996094
1696508119572053500,15.256053466796875,3.0283355712890625,-0.5196253061294556,-0.17230510711669922
1696508119587922700,15.271922607421875,2.9751148223876953,-1.7755615711212158,1.1261175870895386
1696508119603822300,15.287822265625,1.1199665069580078,-2.6306886672973633,2.890432357788086
1696508119619752400,15.30375244140625,-0.3063478469848633,-3.2033252716064453,3.952343463897705
1696508119635621600,15.31962158203125,-1.0396709442138672,-3.4814953804016113,4.169701099395752
1696508119651430000,15.335429931640626,-1.1800260543823242,-3.5085833072662354,3.831848621368408
1696508119667360000,15.351360107421876,-1.4950838088989258,-3.4023871421813965,2.7123897075653076
1696508119683137500,15.367137451171875,-1.7374053001403809,-3.287235736846924,1.3536620140075684
1696508119699006700,15.3830068359375,-1.5490198135375977,-2.9868311882019043,0.00004082918167114258
1696508119714845400,15.398845458984376,-0.9990253448486328,-2.4503273963928223,-1.0663036108016968
1696508119730653400,15.4146533203125,-0.6223716735839844,-1.548435926437378,-1.8850280046463013
1696508119746553000,15.430552978515625,-1.095026969909668,-0.695135235786438,-1.8814963102340698
1696508119762391800,15.446391845703126,-1.8613648414611816,-0.189893901348114,-1.7986655235290527
1696508119778214000,15.4622138671875,-2.4837827682495117,0.04764741659164429,-1.986832618713379
1696508119794052400,15.47805224609375,-2.9766759872436523,0.1422414779663086,-2.4271042346954346
1696508119809921500,15.493921630859376,-3.7605109214782715,0.19817352294921875,-2.7358510494232178
1696508119825790700,15.509790771484376,-4.487126350402832,0.11879372596740723,-2.324833631515503
1696508119841598700,15.5255986328125,-4.289453983306885,0.08352518081665039,-1.199981927871704
1696508119857498400,15.541498291015625,-4.642334938049316,-0.05587482452392578,-0.019636794924736023
1696508119873306600,15.557306640625,-4.3441057205200195,-0.10597407817840576,0.9301174283027649
1696508119889175800,15.57317578125,-4.271512985229492,-0.25165045261383057,1.1966445446014404
1696508119905044700,15.589044677734375,-2.2927303314208984,-0.15805387496948242,1.5296595096588135
1696508119920791800,15.604791748046875,0.9649944305419922,-0.06335282325744629,1.822735071182251
1696508119936661000,15.620660888671875,3.7855329513549805,0.08038902282714844,1.2580525875091553
1696508119952469200,15.63646923828125,5.378399848937988,0.37056708335876465,0.37811294198036194
1696508119968277200,15.65227734375,5.133813858032227,0.8633161783218384,0.3894408345222473
1696508119984116000,15.668115966796876,3.549581527709961,1.344744086265564,0.19463932514190674
1696508119999893500,15.6838935546875,2.804530143737793,1.5347133874893188,-0.967147707939148
1696508120015793200,15.699793212890626,3.4713125228881836,1.2700037956237793,-2.1896629333496094
1696508120031570700,15.71557080078125,5.142121315002441,1.1865020990371704,-2.2485220432281494
1696508120047409400,15.731409423828126,5.581353187561035,1.0596257448196411,-1.9752366542816162
1696508120063309000,15.74730908203125,4.376294136047363,0.7220934629440308,-2.073150873184204
1696508120079117000,15.763116943359375,2.7540197372436523,-0.16250526905059814,-2.2882649898529053
1696508120095016700,15.7790166015625,1.7178564071655273,-1.4481167793273926,-1.864074468612671
1696508120110855400,15.79485546875,1.2383975982666016,-2.647793769836426,-0.9934954643249512
1696508120126663400,15.810663330078125,1.682424545288086,-3.3008980751037598,0.02974240481853485
1696508120142532600,15.82653271484375,2.1439123153686523,-3.4197916984558105,0.9342623353004456
1696508120158371300,15.842371337890626,1.5573139190673828,-3.11380672454834,1.0853748321533203
1696508120174271000,15.85827099609375,-0.14951419830322266,-2.3491978645324707,0.06544569879770279
1696508120190079000,15.874078857421875,-1.6640081405639648,-1.555200219154358,-1.9800759553909302
1696508120205948200,15.8899482421875,-2.6707377433776855,-1.0553593635559082,-2.89011812210083
1696508120221817300,15.9058173828125,-2.398077964782715,-1.0793852806091309,-1.7455894947052002
1696508120237595000,15.921594970703126,-1.6712226867675781,-1.2858052253723145,-0.722027599811554
1696508120253494500,15.93749462890625,-1.5460033416748047,-1.2270227670669556,-0.008186303079128265
1696508120269302800,15.953302734375,-1.6503181457519531,-1.0401496887207031,0.05283527076244354
1696508120285110800,15.96911083984375,-1.9188718795776367,-0.6593524217605591,-0.2637563943862915
1696508120301010400,15.985010498046876,-2.368802547454834,-0.5852915644645691,-0.4039457142353058
1696508120316818400,16.000818359375,-3.2119140625,-0.44071149826049805,0.03436470031738281
1696508120332626700,16.016626708984376,-4.126723766326904,-0.4470111131668091,0.3263165354728699
1696508120348434700,16.0324345703125,-4.637368679046631,-0.46843791007995605,0.37856578826904297
1696508120364243000,16.048242919921876,-4.594405651092529,-0.44573307037353516,0.570483922958374
1696508120380112000,16.06411181640625,-4.655551433563232,-0.3738541603088379,0.9479339718818665
1696508120395920100,16.079920166015626,-3.5936455726623535,0.023531675338745117,-0.13786697387695312
1696508120411819800,16.09581982421875,-2.816056728363037,0.8172891139984131,-1.9088993072509766
1696508120427627800,16.111627685546875,-1.464900016784668,0.7384265661239624,-1.680626630783081
1696508120443436000,16.12743603515625,1.0469694137573242,0.7216882705688477,-0.036560773849487305
1696508120459335700,16.143335693359376,3.0871572494506836,0.5156358480453491,1.4915187358856201
1696508120475174100,16.159174072265625,3.4877052307128906,0.7496744394302368,1.5312888622283936
1696508120491043300,16.175043212890625,2.0767030715942383,0.6738995313644409,0.6933369636535645
1696508120506882000,16.190882080078126,1.400712013244629,0.19535934925079346,-0.1662830114364624
1696508120522720500,16.206720458984375,3.3244762420654297,-0.4377892017364502,-0.7152150273323059
1696508120538559200,16.222559326171876,6.221344947814941,-0.3680248260498047,-0.37717199325561523
1696508120554336800,16.238336669921875,7.199680328369141,0.24404370784759521,-0.0554356575012207
1696508120570267100,16.25426708984375,5.961390495300293,1.4371830224990845,-0.023317575454711914
1696508120586075100,16.2700751953125,3.418532371520996,1.6760200262069702,-0.9571788311004639
1696508120601974800,16.285974853515626,1.3325223922729492,0.9039274454116821,-2.0288479328155518
1696508120617844000,16.301843994140626,1.1730928421020508,-0.6296288967132568,-1.4582935571670532
1696508120633652000,16.31765185546875,2.3213348388671875,-2.1950716972351074,0.11321616172790527
1696508120649521200,16.333521240234376,3.9920921325683594,-3.184000015258789,2.4915356636047363
1696508120665390300,16.349390380859376,3.9343719482421875,-3.4654414653778076,3.4275646209716797
1696508120681259500,16.365259521484376,2.5192108154296875,-3.0314741134643555,2.1490578651428223
1696508120697128700,16.381128662109376,0.20888423919677734,-2.2400357723236084,0.24725496768951416
1696508120712906200,16.39690625,-2.2406516075134277,-1.4916017055511475,-0.4174383878707886
1696508120728683800,16.412683837890626,-3.154046058654785,-1.340463638305664,-0.0641469955444336
1696508120744522500,16.4285224609375,-2.564415454864502,-1.2012276649475098,-0.10951703786849976
1696508120760422100,16.444422119140626,-2.0985565185546875,-1.1016817092895508,-0.3758732080459595
1696508120776291000,16.460291015625,-1.7439608573913574,-1.0445897579193115,-0.2385665774345398
1696508120792160300,16.47616015625,-1.6141085624694824,-0.9479604959487915,-0.21778130531311035
1696508120808029400,16.492029541015626,-2.0911684036254883,-0.7227663993835449,-0.889376163482666
1696508120823837700,16.507837646484376,-3.3603949546813965,-0.5570462942123413,-1.1987245082855225
1696508120839615200,16.523615234375,-5.0122761726379395,-0.5995352268218994,-0.8714786171913147
1696508120855484400,16.539484375,-5.822770118713379,-0.8648819327354431,-0.48587876558303833
1696508120871353300,16.555353271484375,-4.445374488830566,-1.0477542877197266,0.027061164379119873
1696508120887253000,16.5712529296875,-2.770279884338379,-1.1262562274932861,0.45050686597824097
1696508120903122200,16.5871220703125,-2.3204846382141113,-0.8582255840301514,0.520868718624115
1696508120918930400,16.602930419921876,-3.042898178100586,-0.36790943145751953,0.19942569732666016
1696508120934799400,16.61879931640625,-4.004694938659668,-0.049712419509887695,-0.2810264229774475
1696508120950607600,16.634607666015626,-3.13917875289917,0.41342079639434814,-0.4834936857223511
1696508120966446300,16.6504462890625,-0.7866039276123047,0.5198445320129395,-0.075737863779068
1696508120982284800,16.666284912109376,2.6033010482788086,0.5305150747299194,1.1552026271820068
1696508120998154000,16.682154052734376,4.418143272399902,0.5566357374191284,2.081094980239868
1696508121014023200,16.698023193359376,4.200989723205566,0.8498423099517822,1.6640468835830688
1696508121029831200,16.7138310546875,2.6082286834716797,1.0700896978378296,0.2813953757286072
1696508121045730800,16.729730712890625,1.622812271118164,1.0770615339279175,-1.1237642765045166
1696508121061569500,16.745569580078126,2.0869970321655273,0.917722225189209,-1.1912137269973755
1696508121077347000,16.76134716796875,3.60335636138916,0.8572685718536377,0.03743474930524826
1696508121093216300,16.77721630859375,5.290487289428711,0.779093861579895,0.690442681312561
1696508121109024300,16.793024169921875,5.784720420837402,0.5423647165298462,0.32303303480148315
1696508121124924000,16.808923828125,4.473289489746094,-0.09073531627655029,-1.189909815788269
1696508121140701700,16.82470166015625,3.2624549865722656,-1.2518035173416138,-2.009791612625122
1696508121156509700,16.840509765625,3.506617546081543,-2.144526958465576,-1.1441972255706787
1696508121172348400,16.856348388671876,4.079503059387207,-2.745396852493286,-0.18535298109054565
1696508121188156400,16.872156494140626,3.734518051147461,-2.942762851715088,0.10222911834716797
1696508121204086500,16.88808642578125,2.106553077697754,-2.727829933166504,-0.10302139818668365
1696508121219864000,16.903864013671875,0.2298727035522461,-2.156190872192383,-1.0691649913787842
1696508121235702800,16.919702880859376,-1.4783992767333984,-1.5167911052703857,-2.009509801864624
1696508121251510800,16.9355107421875,-2.794435501098633,-1.0103309154510498,-2.320183515548706
1696508121267349500,16.951349609375,-2.574089527130127,-0.9287524223327637,-2.121339797973633
1696508121283249200,16.967249267578126,-1.2656030654907227,-1.031810998916626,-1.9184430837631226
1696508121299088000,16.983087890625,0.21737098693847656,-1.0324639081954956,-1.3139450550079346
1696508121314865400,16.998865478515626,1.0050535202026367,-0.9994327425956726,-0.47414180636405945
1696508121330765000,17.01476513671875,0.17793655395507812,-0.7985839247703552,-0.009699910879135132
1696508121346573000,17.030572998046875,-1.6069612503051758,-0.5328964591026306,-0.01733839511871338
1696508121362442200,17.046442138671875,-3.2914648056030273,-0.32382798194885254,-0.3107582628726959
1696508121378250500,17.06225048828125,-4.631475448608398,-0.2326275110244751,-0.048451781272888184
1696508121394089000,17.0780888671875,-5.301799774169922,-0.26911401748657227,0.308247447013855
1696508121409958100,17.093958251953126,-5.68818998336792,-0.29730355739593506,0.6297865509986877
1696508121425766400,17.109766357421876,-5.614719867706299,-0.4169574975967407,0.5728726983070374
1696508121441666000,17.125666015625,-4.82418966293335,-0.4183617830276489,0.3045966625213623
1696508121457474000,17.14147412109375,-3.904146194458008,-0.12418341636657715,0.05503034591674805
1696508121473343200,17.15734326171875,-2.8469958305358887,0.2303222417831421,0.3060792088508606
1696508121489243000,17.173242919921876,-1.1381683349609375,0.5373953580856323,0.7795293927192688
1696508121505020400,17.1890205078125,0.5183534622192383,0.6511000394821167,0.5487275719642639
1696508121520920000,17.204920166015626,1.8384876251220703,0.6855770349502563,0.6214234828948975
1696508121536758800,17.2207587890625,2.58437442779541,0.903194785118103,0.7380664944648743
1696508121552597200,17.23659716796875,1.9324350357055664,0.9237685203552246,0.2047746777534485
1696508121568466400,17.252466552734376,1.4016036987304688,0.6063199043273926,-0.6317378878593445
1696508121584244000,17.268243896484375,2.6061439514160156,-0.050055742263793945,-0.4215865135192871
1696508121600082700,17.284082763671876,5.879701614379883,-0.6802830696105957,0.13602519035339355
1696508121615860200,17.299860107421875,8.86297607421875,-0.18873894214630127,0.4533984065055847
1696508121631699000,17.315698974609376,8.055508613586426,0.6166695356369019,0.9691269397735596
1696508121647598600,17.3315986328125,4.561400413513184,1.28054940700531,0.5788851976394653
1696508121663406600,17.347406494140625,1.6551876068115234,1.2228699922561646,-0.9980030059814453
1696508121679337000,17.3633369140625,0.6898565292358398,0.2540382146835327,-1.601142168045044
1696508121695175400,17.379175537109376,2.2368545532226562,-0.8661376237869263,-1.0791171789169312
1696508121710983700,17.394983642578126,2.629389762878418,-1.8366280794143677,0.29146313667297363
1696508121726852600,17.4108525390625,1.899123191833496,-2.577918529510498,1.1470985412597656
1696508121742599700,17.426599609375,1.384922981262207,-2.7513551712036133,1.3310309648513794
1696508121758468900,17.44246875,0.37924671173095703,-2.739302158355713,1.1661919355392456
1696508121774277000,17.458277099609376,-1.1699285507202148,-2.5308620929718018,0.7406003475189209
1696508121790146000,17.47414599609375,-2.4222283363342285,-2.3639163970947266,0.30238616466522217
1696508121806015200,17.49001513671875,-2.564431667327881,-2.1836700439453125,0.10531020164489746
1696508121821823500,17.505823486328126,-1.4814319610595703,-1.8392449617385864,0.4336468577384949
1696508121837723100,17.52172314453125,-0.367340087890625,-1.3040260076522827,0.10329222679138184
1696508121853531100,17.53753125,-0.045355796813964844,-0.9605494737625122,-0.6148056983947754
1696508121869339400,17.55333935546875,-0.7986335754394531,-0.5820218920707703,-1.4112043380737305
1696508121885269500,17.56926953125,-2.3465404510498047,-0.3489118814468384,-1.5203973054885864
1696508121901047000,17.585047119140626,-4.087039470672607,-0.2670224905014038,-1.2759469747543335
1696508121916885800,17.6008857421875,-4.709846496582031,-0.26036345958709717,-1.0534889698028564
1696508121932724200,17.61672412109375,-4.725556373596191,-0.2991379499435425,-0.6399279832839966
1696508121948532500,17.632532470703126,-4.285485744476318,-0.350117564201355,-0.3178546726703644
1696508121964432100,17.64843212890625,-4.033061981201172,-0.39730775356292725,-0.10502845048904419
1696508121980240100,17.664240234375,-4.134705543518066,-0.2601609230041504,0.22316855192184448
1696508121996109300,17.680109375,-4.716530799865723,0.01638650894165039,0.2232731580734253
1696508122011917300,17.695917236328125,-4.206781387329102,0.2992953062057495,-0.13429144024848938
1696508122027725600,17.7117255859375,-1.8215217590332031,0.49421238899230957,0.27814292907714844
1696508122043625200,17.727625244140626,1.976593017578125,0.41865766048431396,1.2099566459655762
1696508122059463700,17.743463623046875,3.9304275512695312,0.441520094871521,2.360069990158081
1696508122075332900,17.759332763671875,3.4479446411132812,0.6568810939788818,1.7400527000427246
1696508122091141000,17.77514111328125,2.301410675048828,0.9066444635391235,0.28224965929985046
1696508122106949000,17.79094921875,2.7172155380249023,0.9385627508163452,-0.8941636085510254
1696508122122818300,17.806818359375,4.457897186279297,0.7145322561264038,-1.4673737287521362
1696508122138657000,17.822656982421876,6.061629295349121,0.8471980094909668,-1.3343297243118286
1696508122154526000,17.83852587890625,6.43354606628418,0.9730033874511719,-0.9449948668479919
1696508122170425600,17.854425537109375,5.0624589920043945,0.8760191202163696,-1.3383067846298218
1696508122186356000,17.87035595703125,2.993638038635254,0.18181586265563965,-2.3634042739868164
1696508122202225000,17.886224853515625,2.1761627197265625,-1.2490551471710205,-2.2376441955566406
1696508122218033200,17.902033203125,3.0768308639526367,-2.5485424995422363,-1.057867407798767
1696508122233963300,17.91796337890625,3.6785221099853516,-3.163600444793701,-0.03673705458641052
1696508122249740800,17.93374072265625,3.170053482055664,-3.2405362129211426,0.5494745969772339
1696508122265610000,17.94960986328125,1.5986328125,-2.771024703979492,-0.21049071848392487
1696508122281509600,17.965509521484375,-0.3901481628417969,-2.11961030960083,-1.1168181896209717
1696508122297348400,17.981348388671876,-2.5094728469848633,-1.5165923833847046,-1.8858542442321777
1696508122313248000,17.997248046875,-3.9511404037475586,-1.1114858388900757,-2.451505661010742
1696508122329086700,18.013086669921876,-3.278799057006836,-1.152001142501831,-2.1609349250793457
1696508122344894700,18.028894775390626,-1.6172142028808594,-1.3024494647979736,-1.4315221309661865
1696508122360794400,18.04479443359375,0.45644283294677734,-1.4065574407577515,-0.632857620716095
1696508122376572000,18.060572021484376,2.089902877807617,-1.18598210811615,-0.16863411664962769
1696508122392471600,18.076471435546875,0.4206581115722656,-0.7547261714935303,0.021623700857162476
1696508122408310300,18.092310302734376,-1.6020746231079102,-0.45953017473220825,-0.03887754678726196
1696508122424118300,18.1081181640625,-3.4684720039367676,-0.22323668003082275,-0.22159159183502197
1696508122439957000,18.12395703125,-4.540727615356445,-0.12648963928222656,-0.21047425270080566
1696508122455765000,18.139764892578125,-4.927881717681885,-0.25965893268585205,0.0813971757888794
1696508122471664600,18.15566455078125,-4.565741062164307,-0.21421682834625244,0.38119715452194214
1696508122487503400,18.17150341796875,-4.3356242179870605,-0.22107768058776855,0.6000527739524841
1696508122503281000,18.187281005859376,-4.051525592803955,-0.11975252628326416,0.7959825992584229
1696508122519150000,18.203150146484376,-4.193509101867676,0.1160203218460083,0.0920572280883789
1696508122534958000,18.2189580078125,-3.970661163330078,0.6216787099838257,-0.6563671827316284
1696508122550766300,18.234766357421876,-3.1044750213623047,0.8512603044509888,-1.2999781370162964
1696508122566544000,18.2505439453125,-0.623723030090332,0.9282575845718384,-1.4902652502059937
1696508122582382600,18.266382568359376,2.2280941009521484,1.1009544134140015,-0.9557927846908569
1696508122598251500,18.28225146484375,3.05898380279541,1.4532434940338135,0.32685375213623047
1696508122614059800,18.298059814453126,1.8262939453125,1.8867558240890503,1.111881971359253
1696508122629990000,18.313989990234376,1.3460073471069336,2.008056163787842,0.014973759651184082
1696508122645828600,18.32982861328125,2.737126350402832,1.7673627138137817,-1.0620023012161255
1696508122661636600,18.34563671875,5.00803279876709,1.167341947555542,-1.142370343208313
1696508122677444900,18.36144482421875,7.708457946777344,0.9968019723892212,-1.0484102964401245
1696508122693252900,18.3772529296875,7.913334846496582,1.1946662664413452,-0.07639908790588379
1696508122709152500,18.393152587890626,5.924077033996582,0.6859205961227417,-0.1458606719970703
1696508122724991200,18.4089912109375,4.068550109863281,-0.39983630180358887,-0.5091369152069092
1696508122740799200,18.42479931640625,4.303229331970215,-1.6231696605682373,-0.6070376634597778
1696508122756638000,18.440637939453126,4.430942535400391,-2.706674575805664,0.7870663404464722
1696508122772446000,18.456446044921876,3.1742401123046875,-3.3925609588623047,1.6266725063323975
1696508122788376000,18.4723759765625,1.231297492980957,-3.500349998474121,1.4903607368469238
1696508122804184300,18.488184326171876,-0.4518413543701172,-3.2797422409057617,1.0618771314620972
1696508122820022800,18.504022705078125,-1.5106725692749023,-2.848389148712158,0.7268697023391724
1696508122835892000,18.51989208984375,-2.1439266204833984,-2.3495984077453613,0.1959090232849121
1696508122851700200,18.5357001953125,-2.05912446975708,-2.0715572834014893,0.03995871543884277
1696508122867600000,18.551599853515626,-1.0947465896606445,-1.8321152925491333,0.3054342269897461
1696508122883408000,18.567407958984376,-0.23378658294677734,-1.7221506834030151,0.790783166885376
1696508122899216000,18.5832158203125,0.185455322265625,-1.480043649673462,1.1515300273895264
1696508122915085000,18.5990849609375,-0.637639045715332,-1.2096929550170898,0.6621553897857666
1696508122930923800,18.614923828125,-2.116492748260498,-0.9120759963989258,-0.08711254596710205
1696508122946823400,18.630823486328126,-3.210925579071045,-0.7142522931098938,-0.5673137903213501
1696508122962631400,18.64663134765625,-4.178290843963623,-0.6666627526283264,-0.7986857295036316
1696508122978409200,18.6624091796875,-5.199102401733398,-0.6410645246505737,-0.6604562997817993
1696508122994278100,18.678278076171875,-5.660357475280762,-0.6942735910415649,-0.6628460884094238
1696508123010086400,18.69408642578125,-5.482082843780518,-0.7661278247833252,-0.798809826374054
1696508123026016500,18.7100166015625,-5.285990238189697,-0.5350953340530396,-0.6536067724227905
1696508123041855200,18.725855224609376,-5.729006290435791,-0.2962777614593506,-0.6590097546577454
1696508123057632800,18.7416328125,-5.616166114807129,0.035338521003723145,-0.9516221284866333
1696508123073502000,18.757501953125,-4.281267166137695,0.47363245487213135,-0.9945341348648071
1696508123089279500,18.773279541015626,-1.008453369140625,0.960137128829956,-0.39175546169281006
1696508123105087500,18.78908740234375,2.7475357055664062,1.32283353805542,0.25150296092033386
1696508123120926200,18.80492626953125,4.081729888916016,1.6670838594436646,0.307587206363678
1696508123136703700,18.820703857421876,4.380548477172852,1.932021141052246,-0.2403830885887146
1696508123152603400,18.836603271484375,4.3622026443481445,2.1913938522338867,-1.0697345733642578
1696508123168442000,18.852442138671876,4.024731636047363,2.280806541442871,-1.3393701314926147
1696508123184311300,18.868311279296876,3.989686965942383,1.9422398805618286,-1.1704342365264893
1696508123200149800,18.884149658203125,5.9213104248046875,1.3496769666671753,-1.214064121246338
1696508123215958000,18.8999580078125,7.536035537719727,1.1134138107299805,-0.5107651948928833
1696508123231827200,18.9158271484375,6.627965927124023,1.0722070932388306,-0.24973338842391968
1696508123247635200,18.93163525390625,3.703815460205078,0.6724472045898438,-0.861404299736023
1696508123263534800,18.947534912109376,0.987884521484375,-0.256930947303772,-1.7636644840240479
1696508123279342800,18.9633427734375,0.5941219329833984,-1.4011849164962769,-2.623228073120117
1696508123295212000,18.9792119140625,1.9352550506591797,-2.5430240631103516,-2.171520233154297
1696508123311111700,18.995111572265625,2.644399642944336,-3.286336898803711,-0.9426390528678894
1696508123326889200,19.01088916015625,2.658529281616211,-3.421907424926758,0.11050291359424591
1696508123342788900,19.026788818359375,1.2279720306396484,-2.9150965213775635,-0.11544898897409439
1696508123358597000,19.04259716796875,-0.7872962951660156,-2.1996026039123535,-0.6020499467849731
1696508123374405000,19.058405029296875,-2.9533395767211914,-1.6867175102233887,-1.239051103591919
1696508123390213400,19.07421337890625,-3.292294502258301,-1.4240078926086426,-1.9539802074432373
1696508123406021400,19.090021484375,-2.732907772064209,-1.3964862823486328,-1.9039306640625
1696508123421921000,19.105921142578126,-1.2656259536743164,-1.2163488864898682,-1.4305890798568726
1696508123437759700,19.121759765625,-0.7763004302978516,-0.9229476451873779,-0.879158616065979
1696508123453567700,19.137567626953125,-0.9246730804443359,-0.46721887588500977,-0.44127699732780457
1696508123469467400,19.15346728515625,-1.3539628982543945,-0.2290172576904297,-0.03637954592704773
1696508123485245000,19.169244873046875,-2.1771998405456543,-0.5822612047195435,-0.2614727318286896
1696508123501144600,19.18514453125,-2.8089756965637207,-1.0110807418823242,-0.33102089166641235
1696508123516983300,19.2009833984375,-3.5887365341186523,-1.3365250825881958,0.205718994140625
1696508123532883000,19.216883056640626,-4.775950908660889,-1.4217569828033447,0.8240194320678711
1696508123548782600,19.232782470703125,-5.61477518081665,-1.049443244934082,0.8600372076034546
1696508123564590800,19.2485908203125,-5.536936283111572,-0.3908843994140625,0.6931262016296387
1696508123580459800,19.264459716796875,-3.8070425987243652,0.4921891689300537,0.3619835376739502
1696508123596237600,19.280237548828126,-1.9232454299926758,1.110276222229004,-0.03753077983856201
1696508123612137200,19.29613720703125,-0.7418298721313477,1.5124778747558594,-0.5323906540870667
1696508123628006400,19.31200634765625,0.1025857925415039,1.6666605472564697,-0.4448785185813904
1696508123643784000,19.327783935546876,0.31068897247314453,1.730301856994629,-0.01012200117111206
1696508123659683600,19.34368359375,0.8812904357910156,1.8527820110321045,-0.20633697509765625
1696508123675552800,19.359552734375,1.9757795333862305,1.8007032871246338,-0.7966408133506775
1696508123691391200,19.37539111328125,3.027888298034668,1.5550477504730225,-0.9351254105567932
1696508123707260400,19.391260498046876,4.277684211730957,1.1294653415679932,-0.4670717120170593
1696508123723068400,19.407068359375,6.183669090270996,0.7580361366271973,-0.22629314661026
1696508123738937600,19.4229375,7.952911376953125,1.064194917678833,0.03825724124908447
1696508123754745900,19.438745849609376,6.4169158935546875,1.6904048919677734,0.5716911554336548
1696508123770645500,19.4546455078125,3.801929473876953,2.144679307937622,-0.14573884010314941
1696508123786514700,19.4705146484375,1.6718082427978516,2.1146605014801025,-1.5604419708251953
1696508123802353200,19.486353271484376,2.056025505065918,1.1642580032348633,-2.2084898948669434
1696508123818344400,19.502344482421876,2.963374137878418,-0.1659386157989502,-0.9319664239883423
1696508123834152400,19.51815234375,3.1005611419677734,-1.375105857849121,0.7231127023696899
1696508123849960700,19.533960693359376,2.4437990188598633,-2.2036640644073486,2.1164798736572266
1696508123865799200,19.549799072265625,1.0713720321655273,-2.718467950820923,2.979722023010254
1696508123881638000,19.565637939453126,0.17380619049072266,-2.851990222930908,2.6826345920562744
1696508123897537500,19.58153759765625,-0.8896493911743164,-2.8420677185058594,1.7891390323638916
1696508123913376300,19.597376220703126,-2.2193994522094727,-2.835526466369629,1.0082260370254517
1696508123929214700,19.613214599609375,-3.174388885498047,-2.7256855964660645,0.7848705053329468
1696508123945084000,19.629083984375,-3.6075119972229004,-2.546163320541382,0.8041366338729858
1696508123960892000,19.644891845703125,-3.42020320892334,-2.24143385887146,0.5986114740371704
1696508123976791600,19.66079150390625,-2.3525829315185547,-1.7870352268218994,0.15074551105499268
1696508123992630300,19.67663037109375,-1.4693365097045898,-1.3894740343093872,-0.1987239122390747
1696508124008469000,19.692468994140626,-1.2029953002929688,-0.674091100692749,-0.8412313461303711
1696508124024307500,19.708307373046875,-1.9300212860107422,-0.21246707439422607,-1.8661510944366455
1696508124040085200,19.724085205078126,-2.9087743759155273,0.1368856430053711,-2.183469533920288
1696508124055985000,19.73998486328125,-3.4538044929504395,0.018706440925598145,-1.9961150884628296
1696508124071823400,19.7558232421875,-3.335453510284424,0.06888139247894287,-1.548141360282898
1696508124087601000,19.771600830078125,-3.6756348609924316,0.04486429691314697,-0.9152960777282715
1696508124103439600,19.787439697265626,-3.987201690673828,0.08531081676483154,-0.501906156539917
1696508124119278300,19.8032783203125,-4.117694854736328,0.06435596942901611,-0.1924859881401062
1696508124135086300,19.81908642578125,-3.225416660308838,0.2881127595901489,-0.18139463663101196
1696508124150925000,19.834925048828126,-1.667590618133545,0.2936335802078247,0.39103877544403076
1696508124166733000,19.850733154296876,-0.04522228240966797,0.2817884683609009,1.5452908277511597
1696508124182632700,19.8666328125,2.1421117782592773,0.18673169612884521,2.0033061504364014
1696508124198441000,19.88244091796875,3.8706560134887695,0.36249804496765137,1.7232425212860107
1696508124214340600,19.898340576171876,4.439170837402344,0.68268883228302,1.4084982872009277
1696508124230148600,19.914148681640626,3.4509668350219727,1.089245319366455,0.7211557030677795
1696508124245956600,19.92995654296875,2.6876840591430664,1.5716420412063599,0.1901388168334961
