time,seconds_elapsed,z,y,x
1696508776577169200,0.106169189453125,-0.8752555847167969,-0.32703280448913574,0.06723421812057495
1696508776593068800,0.12206884765625,-0.8248004913330078,-0.3426358699798584,-0.053620338439941406
1696508776608968400,0.137968505859375,-0.36130714416503906,-0.4168252944946289,-0.1254311203956604
1696508776624776400,0.1537763671875,0.511591911315918,-0.636805534362793,-0.15105146169662476
1696508776640706800,0.169706787109375,2.03688907623291,-0.6999437808990479,0.3842959403991699
1696508776656545300,0.185545166015625,3.217670440673828,-0.6530482769012451,0.32275885343551636
1696508776672475600,0.2014755859375,2.771744728088379,0.0605926513671875,-0.5238308906555176
1696508776688375300,0.217375244140625,1.7448673248291016,0.09832477569580078,-0.9623647928237915
1696508776704275000,0.23327490234375,1.3515567779541016,-0.27358365058898926,-1.167999029159546
1696508776720296700,0.249296630859375,2.1137523651123047,-1.0025768280029297,-0.8751792907714844
1696508776736135200,0.26513525390625,4.40473747253418,-1.0519523620605469,-0.19159245491027832
1696508776751974000,0.280973876953125,6.47487735748291,-1.8302607536315918,-0.2949270009994507
1696508776767812400,0.296812255859375,7.784649848937988,-1.1434475183486938,0.6974902153015137
1696508776783651000,0.312651123046875,5.928692817687988,-0.24446165561676025,0.1923418641090393
1696508776799520300,0.328520263671875,2.7886438369750977,0.06004601716995239,0.02810114622116089
1696508776815297800,0.3442978515625,0.7170820236206055,0.4707643985748291,-0.6944167613983154
1696508776831167000,0.3601669921875,-0.3863039016723633,0.8963502049446106,-1.3794853687286377
1696508776846944500,0.375944580078125,-0.2718029022216797,0.5641264319419861,-0.49206578731536865
1696508776862783200,0.391783203125,0.14823150634765625,0.25589513778686523,0.29734283685684204
1696508776878713300,0.40771337890625,0.24520206451416016,0.15697354078292847,0.9560377597808838
1696508776894521300,0.423521240234375,-0.1668863296508789,0.06957590579986572,1.5992422103881836
1696508776910421000,0.4394208984375,-1.490804672241211,0.5016457438468933,2.2150092124938965
1696508776926229200,0.455229248046875,-3.953223705291748,0.8485788106918335,1.8553581237792969
1696508776942098400,0.471098388671875,-5.9996538162231445,1.4089664220809937,2.107407569885254
1696508776957998000,0.486998046875,-6.923371315002441,1.3675411939620972,1.6657037734985352
1696508776973806000,0.50280615234375,-5.23151969909668,1.387324333190918,2.179809093475342
1696508776989644800,0.518644775390625,-2.3193936347961426,1.1239629983901978,2.2836813926696777
1696508777005514000,0.534513916015625,-0.9070234298706055,0.6879926919937134,2.091856002807617
1696508777021352400,0.5503525390625,-1.0404939651489258,0.537901759147644,1.7236000299453735
1696508777037252000,0.566252197265625,-1.6973981857299805,0.8167234659194946,1.0567666292190552
1696508777053060400,0.582060302734375,-2.6878457069396973,1.2169829607009888,-0.26302847266197205
1696508777068960000,0.5979599609375,-3.1653833389282227,1.473764419555664,-0.8804957866668701
1696508777084707000,0.61370703125,-2.3798351287841797,1.416614294052124,-0.8275433778762817
1696508777100545500,0.629545654296875,-0.5999269485473633,0.9609299898147583,0.007497228682041168
1696508777116445200,0.645445068359375,1.7659530639648438,0.6120038032531738,0.8744285106658936
1696508777132253400,0.66125341796875,3.6521072387695312,0.6899712085723877,1.3918813467025757
1696508777148153000,0.677153076171875,2.9006595611572266,0.5868321657180786,0.9296414852142334
1696508777163930600,0.6929306640625,1.9434947967529297,0.6544783115386963,-0.045414745807647705
1696508777179738600,0.708738525390625,2.0606555938720703,0.394913911819458,-0.7125545144081116
1696508777195638300,0.72463818359375,2.956636428833008,0.014888167381286621,-0.5373737812042236
1696508777211416000,0.740416015625,3.802083969116211,0.09677326679229736,0.5428876876831055
1696508777227315700,0.756315673828125,3.8824033737182617,0.39583253860473633,1.9291622638702393
1696508777243093200,0.77209326171875,3.3375778198242188,0.36259591579437256,2.1875264644622803
1696508777258870800,0.787870849609375,3.2953548431396484,0.2706029415130615,1.6724848747253418
1696508777274740000,0.803739990234375,3.668323516845703,-0.026733756065368652,0.9327709674835205
1696508777290578700,0.81957861328125,4.181765556335449,-0.39997774362564087,0.7767375111579895
1696508777306478300,0.835478271484375,4.576582908630371,-0.8851345777511597,1.1271201372146606
1696508777322256000,0.851255859375,4.1381330490112305,-1.260593295097351,1.3856425285339355
1696508777338033400,0.867033447265625,2.626387596130371,-1.374659776687622,1.3730411529541016
1696508777353933000,0.88293310546875,1.007293701171875,-1.0553160905838013,1.129991054534912
1696508777369710600,0.898710693359375,0.06818008422851562,-0.6671227216720581,0.45284825563430786
1696508777385640700,0.914640625,-0.7418441772460938,-0.5764037370681763,-0.04595094919204712
1696508777401418500,0.93041845703125,-1.3465814590454102,-0.8225599527359009,-0.23532387614250183
1696508777417287700,0.94628759765625,-1.3615827560424805,-0.7332295775413513,-0.2978116571903229
1696508777433156600,0.962156494140625,-1.7809133529663086,-0.5885517001152039,-0.11035242676734924
1696508777448964900,0.97796484375,-2.5099124908447266,-0.3515644669532776,0.09001940488815308
1696508777464803300,0.99380322265625,-2.9966578483581543,-0.12237626314163208,0.3265094757080078
1696508777480611600,1.009611572265625,-3.399172306060791,0.14041662216186523,0.1476152539253235
1696508777496480800,1.025480712890625,-3.9629454612731934,0.24567222595214844,-0.06144724786281586
1696508777512349700,1.041349609375,-4.154208183288574,0.44811350107192993,-0.1953698694705963
1696508777528158000,1.057157958984375,-3.961090564727783,0.5304993987083435,-0.23264892399311066
1696508777544027100,1.073027099609375,-3.4573988914489746,0.5131860375404358,-0.013706400990486145
1696508777559896300,1.088896240234375,-2.0292367935180664,0.4044334292411804,0.640723466873169
1696508777575704300,1.104704345703125,-1.5873918533325195,0.19270718097686768,0.9444177150726318
1696508777591604000,1.12060400390625,-2.3219847679138184,0.2822849750518799,1.1508965492248535
1696508777607412000,1.136411865234375,-3.365304470062256,0.5838125944137573,0.7935383319854736
1696508777623281200,1.15228125,-3.143923282623291,0.9293347597122192,-0.15832209587097168
1696508777639120000,1.168119873046875,-1.4376459121704102,1.1628237962722778,-0.45113974809646606
1696508777654989000,1.183989013671875,1.2416000366210938,0.9908688068389893,0.4983120262622833
1696508777670858000,1.19985791015625,3.8250083923339844,0.36028218269348145,1.5282316207885742
1696508777686727200,1.21572705078125,4.005518913269043,0.44214463233947754,2.4989733695983887
1696508777702566000,1.23156591796875,2.717156410217285,0.46318042278289795,2.11576509475708
1696508777718404600,1.247404541015625,1.9178543090820312,0.6267609596252441,0.9682216644287109
1696508777734243000,1.2632431640625,2.5638198852539062,0.5204141139984131,0.14334124326705933
1696508777750142700,1.279142822265625,3.5865278244018555,0.09949362277984619,-0.1606743335723877
1696508777765920300,1.294920166015625,4.115928649902344,-0.03875446319580078,0.3924519121646881
1696508777781759000,1.310759033203125,4.138708114624023,-0.4725344181060791,0.7029908895492554
1696508777797597700,1.32659765625,3.715620994567871,-0.4755168557167053,1.0837565660476685
1696508777813405700,1.34240576171875,3.0785017013549805,-0.29470980167388916,0.904293417930603
1696508777829275000,1.35827490234375,2.6235599517822266,-0.4162784814834595,-0.2739379405975342
1696508777845083000,1.374082763671875,2.5237178802490234,-0.7433874011039734,-0.7916770577430725
1696508777860982500,1.389982421875,2.4219303131103516,-1.034328818321228,-0.4966309070587158
1696508777876790800,1.405790771484375,1.8202495574951172,-1.227713704109192,-0.22483336925506592
1696508777892598800,1.421598876953125,0.6130809783935547,-1.2050018310546875,-0.4501211643218994
1696508777908559600,1.4375595703125,-0.6874475479125977,-0.7365812659263611,-1.0418636798858643
1696508777924306700,1.453306640625,-1.0737762451171875,-0.35189443826675415,-1.4878538846969604
1696508777940236800,1.46923681640625,-1.3026885986328125,-0.2887786626815796,-1.4810973405838013
1696508777956075500,1.485075439453125,-2.0859718322753906,-0.30575597286224365,-1.5062971115112305
1696508777971883500,1.500883544921875,-2.974759578704834,-0.45673704147338867,-1.1040949821472168
1696508777987783200,1.516783203125,-4.015899658203125,-0.529740035533905,-0.805376410484314
1696508778003591200,1.532591064453125,-4.068096160888672,-0.512203574180603,-0.32530051469802856
1696508778019460400,1.54846044921875,-3.673673152923584,-0.6544378399848938,-0.027769148349761963
1696508778035299000,1.564299072265625,-3.177706241607666,-0.47863996028900146,0.3015903830528259
1696508778051168300,1.580168212890625,-3.070657253265381,-0.2697599530220032,0.6362323760986328
1696508778067037200,1.596037109375,-3.9156131744384766,-0.07111918926239014,0.7364453077316284
1696508778082876000,1.6118759765625,-4.294168949127197,0.048467159271240234,0.883044421672821
1696508778098745000,1.6277451171875,-3.7505226135253906,0.30087459087371826,1.1423993110656738
1696508778114553000,1.643552978515625,-3.659224510192871,0.5627462863922119,1.0459753274917603
1696508778130422300,1.65942236328125,-3.626096248626709,0.8232654333114624,1.1085447072982788
1696508778146291500,1.67529150390625,-2.9548897743225098,1.135603904724121,1.3005633354187012
1696508778162130200,1.691130126953125,-2.1427736282348633,1.153049349784851,1.3196721076965332
1696508778177968600,1.70696875,-0.9292135238647461,1.2940751314163208,1.3580737113952637
1696508778193807400,1.722807373046875,1.1429824829101562,1.411299467086792,1.5597279071807861
1696508778209615400,1.738615478515625,2.986766815185547,1.3179782629013062,1.9245389699935913
1696508778225484500,1.754484619140625,4.402498245239258,1.102718472480774,2.6049795150756836
1696508778241353700,1.770353759765625,4.473177909851074,0.8813298940658569,2.2864720821380615
1696508778257223000,1.786222900390625,4.30074405670166,0.7284649610519409,1.166400671005249
1696508778273061400,1.802061279296875,4.994390487670898,0.8998826742172241,-0.02132028341293335
1696508778288869600,1.81786962890625,5.565613746643066,1.3737901449203491,-0.43149083852767944
1696508778304738800,1.83373876953125,5.3760833740234375,1.7846922874450684,-0.37156179547309875
1696508778320516400,1.849516357421875,4.471233367919922,1.682997226715088,-0.8752182126045227
1696508778336416000,1.865416015625,3.6800336837768555,0.6545337438583374,-1.9561688899993896
1696508778352224000,1.88122412109375,3.9997711181640625,-0.6134045720100403,-1.5210986137390137
1696508778368032300,1.8970322265625,4.734313011169434,-1.6054513454437256,-0.16070306301116943
1696508778383962400,1.91296240234375,4.8880462646484375,-2.2448198795318604,1.075042724609375
1696508778399770400,1.928770263671875,2.9499025344848633,-2.3244800567626953,1.9827364683151245
1696508778415670000,1.944669921875,0.663081169128418,-1.7468478679656982,1.775473952293396
1696508778431478300,1.960478271484375,-0.33269500732421875,-1.1845850944519043,0.721377968788147
1696508778447316700,1.976316650390625,-0.5370807647705078,-0.6822018623352051,0.13195562362670898
1696508778463216400,1.99221630859375,-1.0444440841674805,-0.6630774736404419,0.16805827617645264
1696508778479055000,2.00805517578125,-1.4437685012817383,-0.8912594318389893,0.16884124279022217
1696508778494924300,2.02392431640625,-1.563807487487793,-1.286069631576538,-0.026501059532165527
1696508778510732300,2.039732177734375,-1.659825325012207,-1.5594971179962158,0.5505188703536987
1696508778526601500,2.0556015625,-2.0363688468933105,-1.6658451557159424,1.2556378841400146
1696508778542470700,2.071470703125,-2.715719699859619,-1.497406244277954,1.6021965742111206
1696508778558217700,2.0872177734375,-3.813249111175537,-1.2416954040527344,1.277646541595459
1696508778574147800,2.10314794921875,-4.732533931732178,-0.8280999660491943,0.3578134775161743
1696508778589956000,2.1189560546875,-4.894052505493164,-0.4607647955417633,-0.16103941202163696
1696508778605794600,2.134794677734375,-4.500532150268555,-0.28148436546325684,0.2584077715873718
1696508778621663700,2.150663818359375,-3.7136001586914062,-0.1940319538116455,0.92718505859375
1696508778637472000,2.166471923828125,-3.2819314002990723,-0.03031790256500244,0.846831202507019
1696508778653402000,2.182402099609375,-3.6150102615356445,0.34092020988464355,0.7552143335342407
1696508778669179600,2.1981796875,-3.8126606941223145,0.6486072540283203,0.8306410908699036
1696508778684987600,2.213987548828125,-3.7070465087890625,0.835986852645874,0.9307342767715454
1696508778700948500,2.229948486328125,-2.1982412338256836,0.8558965921401978,1.0075198411941528
1696508778716741600,2.24574169921875,0.513361930847168,1.0305625200271606,1.4688265323638916
1696508778732641300,2.261641357421875,3.0097646713256836,1.1804442405700684,2.586925983428955
1696508778748479700,2.277479736328125,3.7383127212524414,1.1927075386047363,3.071352958679199
1696508778764288000,2.2932880859375,2.9576425552368164,1.567002296447754,2.0861592292785645
1696508778780187600,2.309187744140625,1.7643051147460938,1.6044460535049438,0.7895112633705139
1696508778795995600,2.32499560546875,2.037090301513672,1.5437076091766357,-0.5820896029472351
1696508778811834400,2.34083447265625,3.156797409057617,1.464490294456482,-0.7731674313545227
1696508778827642400,2.356642333984375,4.076666831970215,1.7726000547409058,-0.14216749370098114
1696508778843420000,2.372419921875,3.944483757019043,2.1901862621307373,0.31755876541137695
1696508778859289000,2.3882890625,3.1056270599365234,2.0858845710754395,-0.2786618173122406
1696508778875158300,2.404158203125,2.0473718643188477,1.1346380710601807,-0.8157287240028381
1696508778890997000,2.4199970703125,2.9774913787841797,0.007403373718261719,-1.048261284828186
1696508778906805000,2.435804931640625,5.041989326477051,-1.6116318702697754,-0.6203628182411194
1696508778922674200,2.451674072265625,5.430611610412598,-2.7558867931365967,0.35705676674842834
1696508778938573800,2.46757373046875,3.5687313079833984,-3.033212423324585,1.398175835609436
1696508778954412500,2.48341259765625,1.354140281677246,-2.9104416370391846,1.0191113948822021
1696508778970281700,2.49928173828125,-0.6216974258422852,-2.3240013122558594,-0.42084723711013794
1696508778986120200,2.5151201171875,-1.706151008605957,-1.7646934986114502,-2.0153298377990723
1696508779001959000,2.530958984375,-1.9488654136657715,-1.0172655582427979,-2.855785369873047
1696508779017858600,2.546858642578125,-2.5180130004882812,-0.6371970176696777,-2.574962854385376
1696508779033666600,2.56266650390625,-2.799504280090332,-0.48939263820648193,-2.146725654602051
1696508779049566200,2.578566162109375,-2.1967153549194336,-0.422261118888855,-1.9105113744735718
1696508779065313300,2.594313232421875,-1.9283294677734375,-0.2769503593444824,-1.5254271030426025
1696508779081121500,2.61012158203125,-3.296522617340088,-0.11500591039657593,-1.374981164932251
1696508779097051600,2.6260517578125,-4.473010063171387,-0.03827124834060669,-1.7114899158477783
1696508779112890400,2.641890380859375,-3.942753314971924,0.11232578754425049,-1.4960978031158447
1696508779128759300,2.65775927734375,-3.6997036933898926,0.09468847513198853,-0.7784853577613831
1696508779144567600,2.673567626953125,-3.7968435287475586,0.15268421173095703,0.16403669118881226
1696508779160406000,2.689406005859375,-3.7323150634765625,0.03406345844268799,0.6771196126937866
1696508779176305700,2.7053056640625,-4.256335735321045,0.18782073259353638,0.6445444226264954
1696508779192083500,2.72108349609375,-4.879508972167969,0.43825817108154297,0.271672785282135
1696508779207983000,2.736983154296875,-4.9868083000183105,0.909971296787262,0.21931004524230957
1696508779223760600,2.7527607421875,-4.354321479797363,1.151838779449463,0.44644445180892944
1696508779239599000,2.76859912109375,-1.5233144760131836,1.1396667957305908,0.5976079106330872
1696508779255529500,2.784529541015625,2.116030693054199,0.9454905986785889,1.1411677598953247
1696508779271337500,2.80033740234375,4.981291770935059,0.8700578212738037,2.1924216747283936
1696508779287237000,2.816237060546875,5.2093048095703125,0.9821012020111084,2.6691598892211914
1696508779303075800,2.832075927734375,3.6012372970581055,1.2651931047439575,1.9725313186645508
1696508779318914300,2.847914306640625,2.1759767532348633,1.466113567352295,0.5790209770202637
1696508779334783500,2.863783447265625,1.9070720672607422,1.5477464199066162,-0.6001011729240417
1696508779350561000,2.87956103515625,2.7456588745117188,1.4236974716186523,-0.06879675388336182
1696508779366521900,2.89552197265625,5.077239036560059,1.030108094215393,1.297738790512085
1696508779382329900,2.911329833984375,7.393555641174316,0.7258105874061584,1.7659956216812134
1696508779398168600,2.92716845703125,8.057765007019043,0.2791641056537628,0.6552456617355347
1696508779414037800,2.943037841796875,7.167118072509766,-0.7693641185760498,-0.9413994550704956
1696508779429845800,2.958845703125,5.6590375900268555,-1.5188490152359009,-1.324127197265625
1696508779445745400,2.974745361328125,4.250400543212891,-1.9688982963562012,-0.4568183422088623
1696508779461523000,2.99052294921875,2.4211111068725586,-2.0345630645751953,0.7466158866882324
1696508779477361700,3.006361572265625,-0.10483741760253906,-1.9531781673431396,1.3917278051376343
1696508779493261300,3.02226123046875,-1.9855542182922363,-1.7304134368896484,1.3022218942642212
1696508779509069600,3.038069580078125,-2.502357006072998,-1.5019253492355347,0.8964768648147583
1696508779524938500,3.0539384765625,-2.3406572341918945,-1.4300861358642578,0.5123836994171143
1696508779540716300,3.06971630859375,-2.771941661834717,-1.3976836204528809,0.2707580327987671
1696508779556524300,3.085524169921875,-2.7712888717651367,-1.4737473726272583,0.16249895095825195
1696508779572454400,3.101454345703125,-1.6664237976074219,-1.5014448165893555,0.5250461101531982
1696508779588323600,3.117323486328125,-0.6146774291992188,-1.2341363430023193,0.8431570529937744
1696508779604223200,3.13322314453125,-0.5432195663452148,-0.6305492520332336,0.7840079069137573
1696508779620000800,3.149000732421875,-2.1243410110473633,0.18766838312149048,-0.09742653369903564
1696508779635809000,3.16480908203125,-3.317350387573242,0.6732237935066223,-0.8740352988243103
1696508779651678200,3.18067822265625,-4.61185359954834,0.7833186984062195,-1.3309895992279053
1696508779667516700,3.1965166015625,-4.386021614074707,0.8767682909965515,-1.123867154121399
1696508779683416300,3.212416259765625,-4.134031772613525,0.6183024644851685,-0.4261338710784912
1696508779699255000,3.228255126953125,-4.035738468170166,0.4716367721557617,0.14929884672164917
1696508779715032600,3.244032470703125,-4.236941814422607,0.6393953561782837,0.4521990418434143
1696508779730871300,3.259871337890625,-4.609389305114746,0.6159761548042297,0.9282193779945374
1696508779746709800,3.275709716796875,-4.508788108825684,0.5740382671356201,1.2989263534545898
1696508779762548500,3.291548583984375,-2.4764580726623535,0.6779720187187195,1.2030595541000366
1696508779778417700,3.307417724609375,0.19834136962890625,0.6364215612411499,1.3266987800598145
1696508779794195200,3.3231953125,1.9704933166503906,0.526064932346344,2.248990058898926
1696508779810064400,3.339064453125,3.086832046508789,0.8840782642364502,3.617558002471924
1696508779825842000,3.354842041015625,2.386115074157715,1.0822876691818237,3.811458110809326
1696508779841741600,3.370741455078125,1.9575471878051758,1.361272931098938,2.9340994358062744
1696508779857488600,3.386488525390625,2.229496955871582,1.4249358177185059,1.782043218612671
1696508779873266200,3.40226611328125,2.876171112060547,1.2112438678741455,0.6195235252380371
1696508779889135400,3.41813525390625,3.839395523071289,0.707423210144043,0.24515241384506226
1696508779904974000,3.43397412109375,5.598066329956055,0.598170280456543,1.0110812187194824
1696508779920812500,3.4498125,6.14279842376709,0.7750018239021301,1.1566264629364014
1696508779936590000,3.465590087890625,4.91596794128418,0.8812499046325684,-0.11993223428726196
1696508779952428800,3.4814287109375,3.1711931228637695,0.8598400354385376,-1.7113302946090698
1696508779968267500,3.497267578125,1.282099723815918,-0.2611389756202698,-1.9349900484085083
1696508779984045000,3.513045166015625,0.8236379623413086,-1.752976894378662,-1.509643793106079
1696508779999944700,3.52894482421875,1.029383659362793,-2.674462080001831,-0.9236708879470825
1696508780015752700,3.544752685546875,1.6420421600341797,-3.025531530380249,-0.8800463676452637
1696508780031561000,3.56056103515625,1.7979660034179688,-2.817004680633545,-1.777381420135498
1696508780047491000,3.576490966796875,1.2435369491577148,-1.9081109762191772,-2.601564645767212
1696508780063268600,3.5922685546875,-0.6598310470581055,-1.2335962057113647,-2.5505027770996094
1696508780079137800,3.6081376953125,-1.8874845504760742,-0.8478958606719971,-2.4126672744750977
1696508780094945800,3.62394580078125,-2.310326099395752,-0.7665787935256958,-2.1290972232818604
1696508780110784500,3.639784423828125,-2.1410274505615234,-0.7344936728477478,-1.4060691595077515
1696508780126684200,3.65568408203125,-2.340491771697998,-0.8132555484771729,-0.3566191792488098
1696508780142461700,3.671461669921875,-2.405038833618164,-0.8089030981063843,0.015189409255981445
1696508780158361300,3.687361328125,-1.9492931365966797,-0.4659254550933838,-0.08926403522491455
1696508780174200000,3.703199951171875,-2.14448881149292,-0.21474963426589966,-0.30422377586364746
1696508780190038800,3.719038818359375,-2.5408716201782227,0.04549360275268555,-0.5594476461410522
1696508780205969000,3.734968994140625,-3.0904860496520996,0.1799071729183197,-0.5495429039001465
1696508780221777000,3.75077685546875,-4.051320552825928,0.23439320921897888,-0.6231464147567749
1696508780237646000,3.76664599609375,-4.594343185424805,0.42441558837890625,-0.41781747341156006
1696508780253484800,3.78248486328125,-4.402771472930908,0.5253283381462097,-0.42381203174591064
1696508780269323300,3.7983232421875,-2.939964771270752,0.5683208107948303,0.01796269416809082
1696508780285162000,3.814161865234375,-2.0011868476867676,0.4680558443069458,0.49307000637054443
1696508780300939500,3.829939453125,-1.5195636749267578,0.6087189316749573,0.7649023532867432
1696508780316839200,3.845839111328125,-1.2174320220947266,0.9448087811470032,0.5072207450866699
1696508780332616700,3.86161669921875,0.06893253326416016,1.2646687030792236,0.44237494468688965
1696508780348425000,3.877425048828125,3.1264076232910156,1.2312182188034058,0.9687314033508301
1696508780364294100,3.893294189453125,4.295519828796387,1.0190589427947998,1.1096751689910889
1696508780380163000,3.9091630859375,3.780362129211426,0.8582507967948914,1.1778109073638916
1696508780396063000,3.92506298828125,3.6782054901123047,0.6813923120498657,1.015939712524414
1696508780411871000,3.94087109375,4.431550025939941,0.9242682456970215,1.5386848449707031
1696508780427709700,3.956709716796875,4.31068229675293,1.329156517982483,2.088273048400879
1696508780443578600,3.97257861328125,3.541415214538574,1.517349123954773,2.159727096557617
1696508780459417300,3.988417236328125,3.7498855590820312,1.2260401248931885,1.1422781944274902
1696508780475286500,4.00428662109375,4.097133636474609,0.316081166267395,0.18067455291748047
1696508780491064000,4.02006396484375,4.824625015258789,-0.6809722185134888,-0.4824727773666382
1696508780506841600,4.035841552734375,4.499661445617676,-1.5738128423690796,0.1293506622314453
1696508780522741200,4.0517412109375,2.406160354614258,-2.189481735229492,2.026414155960083
1696508780538549500,4.067549560546875,0.35552501678466797,-2.3525867462158203,3.074437141418457
1696508780554418700,4.083418701171875,-0.912510871887207,-2.2522130012512207,2.4525668621063232
1696508780570226700,4.099226806640625,-1.2541561126708984,-1.8522884845733643,1.060145378112793
1696508780586156800,4.11515673828125,-1.75358247756958,-1.6922073364257812,0.34448981285095215
1696508780602026000,4.13102587890625,-1.8049054145812988,-1.6920173168182373,0.16233372688293457
1696508780617834000,4.146833984375,-1.125401496887207,-1.5361320972442627,0.054000258445739746
1696508780633733600,4.162733642578125,-0.6092805862426758,-1.2347116470336914,-0.07587182521820068
1696508780649511400,4.178511474609375,-0.9899072647094727,-0.874719500541687,-0.1323915719985962
1696508780665350000,4.194349853515625,-1.805922031402588,-0.41533657908439636,-0.39720726013183594
1696508780681219000,4.210218994140625,-2.304161548614502,0.10569953918457031,-0.947699785232544
1696508780697057800,4.226057861328125,-2.9559993743896484,0.4546661376953125,-1.2661463022232056
1696508780712896300,4.241896240234375,-3.058516502380371,0.5085968971252441,-0.763159990310669
1696508780728796000,4.2577958984375,-3.2735934257507324,0.37876808643341064,-0.23692429065704346
1696508780744634600,4.273634521484375,-3.3833794593811035,0.2072068452835083,0.21292328834533691
1696508780760503800,4.28950390625,-3.727444648742676,-0.04565787315368652,0.40094316005706787
1696508780776281300,4.30528125,-4.922853946685791,-0.16575181484222412,0.39891672134399414
1696508780792181000,4.321180908203125,-5.332710266113281,0.12760597467422485,0.1547011137008667
1696508780807989200,4.3369892578125,-5.361245632171631,0.47828352451324463,0.0006979703903198242
1696508780823827700,4.35282763671875,-3.440120220184326,0.603185772895813,0.2813831567764282
1696508780839727400,4.368727294921875,0.3867483139038086,0.41527557373046875,1.614645004272461
1696508780855535600,4.38453564453125,2.77078914642334,0.23060911893844604,2.53464937210083
1696508780871435300,4.400435302734375,3.0365257263183594,0.5839035511016846,3.023974895477295
1696508780887243300,4.4162431640625,2.170954704284668,1.1186769008636475,3.094158172607422
1696508780903082000,4.43208203125,1.2298822402954102,1.5608829259872437,2.753279685974121
1696508780918981600,4.447981689453125,1.1034746170043945,1.7221646308898926,1.633657455444336
1696508780934850800,4.463850830078125,2.2623376846313477,1.559278130531311,0.6547731757164001
1696508780950750500,4.47975048828125,4.644716262817383,1.2770224809646606,0.15375280380249023
1696508780966558500,4.495558349609375,6.682746887207031,1.1756778955459595,0.6639918088912964
1696508780982366500,4.511366455078125,6.921010971069336,1.3649663925170898,1.1643080711364746
1696508780998266000,4.52726611328125,5.024286270141602,1.4175951480865479,0.4502946734428406
1696508781014044000,4.5430439453125,2.3698253631591797,1.2976058721542358,-0.7839806079864502
1696508781029974000,4.55897412109375,1.1881790161132812,0.5294828414916992,-1.7941131591796875
1696508781045782000,4.574781982421875,1.4734430313110352,-0.9190282821655273,-2.0049760341644287
1696508781061620700,4.590620849609375,2.169436454772949,-2.6421194076538086,-1.2584995031356812
1696508781077490000,4.606489990234375,2.3833513259887695,-3.2936692237854004,-0.09193462133407593
1696508781093328400,4.622328369140625,1.1634435653686523,-3.142399787902832,0.18330323696136475
1696508781109167000,4.6381669921875,0.07642364501953125,-2.265031576156616,-0.8956280946731567
1696508781125005800,4.654005859375,-1.3232316970825195,-1.1458534002304077,-2.6024887561798096
1696508781140813800,4.669813720703125,-2.3889966011047363,-0.37262463569641113,-3.2427101135253906
1696508781156744000,4.685743896484375,-3.0343761444091797,-0.03277087211608887,-2.921327590942383
1696508781172521500,4.701521484375,-3.104580879211426,-0.1504199504852295,-1.9296796321868896
1696508781188421400,4.71742138671875,-2.6720147132873535,-0.2452099323272705,-0.9213873744010925
1696508781204199000,4.733198974609375,-2.5630455017089844,-0.16428148746490479,-0.19083809852600098
1696508781220037400,4.749037353515625,-2.6851863861083984,-0.09798377752304077,0.03935539722442627
1696508781235937000,4.76493701171875,-3.512834072113037,-0.1534038782119751,-0.435607373714447
1696508781251745300,4.780745361328125,-3.8867878913879395,-0.0764303207397461,-0.8352298736572266
1696508781267614500,4.796614501953125,-3.6060791015625,0.05225837230682373,-0.9473196268081665
1696508781283453000,4.812452880859375,-3.554734230041504,0.1045600175857544,-0.589390754699707
1696508781299291600,4.828291748046875,-3.7296228408813477,0.12162673473358154,0.11420762538909912
1696508781315191300,4.84419140625,-3.8515214920043945,0.14608371257781982,0.38122522830963135
1696508781331030000,4.860030029296875,-3.336453437805176,0.3924548029899597,0.49944376945495605
1696508781346929700,4.8759296875,-2.5521302223205566,0.5957151651382446,0.2613259553909302
1696508781362707200,4.891707275390625,-1.085291862487793,0.6884681582450867,0.2702070474624634
1696508781378515200,4.90751513671875,0.22282981872558594,0.7313317060470581,0.5058885812759399
1696508781394384400,4.92338427734375,0.7962112426757812,0.6657468676567078,1.028522253036499
1696508781410192400,4.9391923828125,2.134014129638672,0.626714289188385,1.839266300201416
1696508781426092000,4.955092041015625,3.2097902297973633,0.40257716178894043,2.4042277336120605
1696508781441839000,4.970839111328125,2.937997817993164,0.37519896030426025,1.925514578819275
1696508781457617000,4.986616943359375,2.965704917907715,0.4433032274246216,0.6347358226776123
1696508781473485800,5.00248583984375,3.9332170486450195,0.3273506760597229,-0.43598175048828125
1696508781489263600,5.018263671875,4.237131118774414,0.017005205154418945,0.22337818145751953
1696508781505163300,5.034163330078125,5.188909530639648,0.3548855781555176,1.8478633165359497
1696508781521001700,5.050001708984375,5.694332122802734,1.1538151502609253,1.929772973060608
1696508781536779500,5.065779541015625,5.123743057250977,1.7784377336502075,1.399861216545105
1696508781552740000,5.081739990234375,4.418266296386719,1.6895463466644287,0.6277823448181152
1696508781568517600,5.097517578125,3.8700809478759766,0.9052088260650635,0.5411664247512817
1696508781584386800,5.11338671875,3.60355281829834,-0.24206453561782837,0.8331161737442017
1696508781600164400,5.129164306640625,2.68585205078125,-1.1930171251296997,1.6856257915496826
1696508781616033500,5.145033447265625,1.0321130752563477,-1.9776676893234253,2.39932918548584
1696508781631933200,5.16093310546875,-0.3973417282104492,-2.17527174949646,2.289440155029297
1696508781647741400,5.176741455078125,-1.2328910827636719,-1.9452478885650635,1.3511488437652588
1696508781663580000,5.192579833984375,-1.5525474548339844,-1.567859411239624,0.26460540294647217
1696508781679510000,5.208510009765625,-1.5837316513061523,-1.3813867568969727,-0.8281990885734558
1696508781695470800,5.224470947265625,-1.9526710510253906,-1.2991551160812378,-0.8803497552871704
1696508781711340000,5.240340087890625,-2.6548876762390137,-1.292738437652588,-0.3067038655281067
1696508781727148000,5.25614794921875,-3.595099449157715,-1.247620701789856,0.10418927669525146
1696508781743017200,5.272017333984375,-5.306960582733154,-1.2483923435211182,-0.40731459856033325
1696508781758794800,5.287794677734375,-6.1963982582092285,-1.2656344175338745,-2.046907901763916
1696508781774603000,5.30360302734375,-5.321437358856201,-1.0201044082641602,-2.612525224685669
1696508781790533000,5.319533203125,-3.4254074096679688,-1.156476616859436,-1.3987507820129395
1696508781806341000,5.335341064453125,-1.708282470703125,-1.3074686527252197,0.7032446265220642
1696508781822240800,5.35124072265625,-2.4642868041992188,-1.256723403930664,1.801090955734253
1696508781837987800,5.36698779296875,-4.821030616760254,-0.8119626045227051,0.7171229720115662
1696508781853826600,5.38282666015625,-5.098611354827881,-0.0669180154800415,-1.1816356182098389
1696508781869695700,5.39869580078125,-3.556382656097412,0.5826581716537476,-1.4850592613220215
1696508781885503700,5.414503662109375,-1.0001001358032227,0.9500260353088379,0.07306557893753052
1696508781901373000,5.430373046875,1.3109254837036133,1.1209208965301514,2.0094494819641113
1696508781917150500,5.446150390625,2.1550140380859375,1.2155930995941162,3.103501319885254
1696508781932989200,5.4619892578125,2.146296501159668,1.485060691833496,2.661055088043213
1696508781948888800,5.477888916015625,2.491032600402832,1.6978849172592163,1.594751238822937
1696508781964666400,5.493666259765625,3.0770416259765625,1.6658837795257568,0.34363535046577454
1696508781980566000,5.50956591796875,3.861661911010742,1.8324158191680908,-0.22071030735969543
1696508781996343600,5.525343505859375,4.390008926391602,1.5655971765518188,-0.03882021829485893
1696508782012182300,5.541182373046875,5.19875431060791,1.3451597690582275,0.008331246674060822
1696508782028051500,5.557051513671875,4.368599891662598,1.5266742706298828,0.4881530702114105
1696508782043859500,5.572859375,1.7995738983154297,1.2923386096954346,0.7326176166534424
1696508782059698200,5.5886982421875,1.3725290298461914,0.8363630771636963,1.5840773582458496
1696508782075536600,5.60453662109375,2.543137550354004,0.15753018856048584,1.164199948310852
1696508782091345000,5.620344970703125,3.625716209411621,-0.9974627494812012,-1.472210168838501
1696508782107214000,5.636214111328125,4.63885498046875,-2.4235904216766357,-2.1967520713806152
1696508782123022000,5.65202197265625,5.294245719909668,-3.5595126152038574,-1.697819471359253
1696508782138921700,5.667921630859375,4.565803527832031,-3.7311501502990723,-0.4070296883583069
1696508782154729700,5.683729736328125,1.395162582397461,-3.5288069248199463,0.7985312342643738
1696508782170507500,5.699507568359375,-1.3571586608886719,-2.5545060634613037,0.039128437638282776
1696508782186437600,5.715437744140625,-1.7163801193237305,-1.7486636638641357,-1.4312472343444824
1696508782202245600,5.73124560546875,-1.3377676010131836,-1.085479497909546,-2.2649292945861816
1696508782218145300,5.747145263671875,-1.4113798141479492,-0.6442811489105225,-2.700443744659424
1696508782233953500,5.76295361328125,-1.6153888702392578,-0.1551257073879242,-2.8291265964508057
1696508782249761500,5.778761474609375,-0.8013572692871094,-0.22186753153800964,-2.103515148162842
1696508782265630700,5.794630615234375,0.21545982360839844,-0.30797091126441956,-0.8231175541877747
1696508782281438700,5.810438720703125,-0.5990400314331055,-0.19105921685695648,-0.25781771540641785
1696508782297338400,5.82633837890625,-2.1895647048950195,0.05619315803050995,-0.2541603446006775
1696508782313177000,5.842177001953125,-4.412726402282715,0.10420885682106018,-0.2610616087913513
1696508782329046300,5.85804638671875,-5.641656398773193,0.10113608837127686,0.17499178647994995
1696508782344946000,5.87394580078125,-5.681617736816406,0.18929940462112427,0.5741799473762512
1696508782360723500,5.889723388671875,-5.665613651275635,0.33896708488464355,0.8366758823394775
1696508782376592600,5.905592529296875,-5.2777204513549805,0.5649681687355042,0.9897446036338806
1696508782392370200,5.9213701171875,-4.783753871917725,0.7087724804878235,0.6545519232749939
1696508782408209000,5.937208984375,-3.7777256965637207,0.7578510642051697,0.15837430953979492
1696508782424108500,5.953108642578125,-2.7329940795898438,0.8559972643852234,0.0049530863761901855
1696508782439916500,5.96891650390625,-1.7741899490356445,0.9511557817459106,-0.11023616790771484
1696508782455816200,5.984816162109375,0.5416469573974609,0.8553800582885742,-0.0020976662635803223
1696508782471624400,6.00062451171875,3.461343765258789,0.8695923089981079,0.44403916597366333
1696508782487463000,6.016462890625,4.823549270629883,1.0024880170822144,1.1986932754516602
1696508782503301600,6.032301513671875,3.711179733276367,1.1081790924072266,1.6745591163635254
1696508782519079200,6.0480791015625,1.8193225860595703,1.037109375,0.9201404452323914
1696508782534978800,6.063978759765625,1.541961669921875,0.7334811687469482,0.043428778648376465
1696508782550909000,6.079908935546875,2.974949836730957,0.6584518551826477,0.2678218483924866
1696508782566717200,6.09571728515625,4.569547653198242,0.8563969135284424,0.8706874847412109
1696508782582616800,6.111616943359375,5.858094215393066,1.0409294366836548,1.4398990869522095
1696508782598486000,6.127486083984375,5.572113037109375,1.2006641626358032,0.6458278894424438
1696508782614385700,6.1433857421875,4.637660026550293,0.6139729619026184,-0.3635713458061218
1696508782630193700,6.159193603515625,4.593145370483398,-0.46068236231803894,-0.8040707111358643
1696508782646154500,6.175154541015625,4.031919479370117,-1.2330355644226074,0.1133350133895874
1696508782662023400,6.1910234375,2.2401371002197266,-1.9923338890075684,1.5398222208023071
1696508782677831700,6.206831787109375,0.4762697219848633,-2.370835304260254,2.538365602493286
1696508782693761800,6.22276171875,-0.6698436737060547,-2.386086940765381,2.4217896461486816
1696508782709570000,6.238570068359375,-1.9423484802246094,-2.15972900390625,1.5652408599853516
1696508782725408500,6.254408447265625,-2.7376155853271484,-1.8941415548324585,0.5712004899978638
1696508782741277700,6.270277587890625,-2.546919345855713,-1.757934331893921,-0.2194252610206604
1696508782757238300,6.28623828125,-1.3865957260131836,-1.6006903648376465,-0.7880308628082275
1696508782773107500,6.302107421875,-0.1459674835205078,-1.3270788192749023,-0.842718243598938
1696508782788885000,6.317885009765625,0.277069091796875,-0.7985910177230835,-0.66661536693573
1696508782804723700,6.3337236328125,-0.5869970321655273,-0.36754971742630005,-0.7191836833953857
1696508782820593000,6.349593017578125,-2.0814547538757324,0.009467869997024536,-0.6207020282745361
1696508782836462000,6.365462158203125,-2.8339176177978516,0.32208389043807983,-0.5850877165794373
1696508782852361700,6.38136181640625,-2.6965975761413574,0.5587865114212036,-0.49505266547203064
1696508782868169700,6.397169677734375,-2.5214056968688965,0.6016992330551147,-1.2857246398925781
1696508782884008400,6.413008544921875,-2.7670788764953613,0.637788712978363,-1.6289589405059814
1696508782899908000,6.428908203125,-2.8122410774230957,0.6057680249214172,-0.7241196632385254
1696508782915685600,6.444685546875,-2.305391788482666,0.3052518367767334,0.6680251359939575
1696508782931554800,6.460554931640625,-3.5211682319641113,0.5054705739021301,2.430722713470459
1696508782947362800,6.47636279296875,-5.749740123748779,0.25486278533935547,2.6262707710266113
1696508782963201500,6.492201416015625,-6.520021438598633,0.45346152782440186,2.323918104171753
1696508782979070700,6.50807080078125,-4.0507636070251465,0.6787732839584351,1.6873811483383179
1696508782994909200,6.5239091796875,-0.8296546936035156,0.6675688028335571,1.6626503467559814
1696508783010748000,6.539747802734375,1.3216533660888672,0.5280282497406006,2.689763069152832
1696508783026556000,6.555555908203125,1.8555021286010742,0.7571283578872681,3.0667006969451904
1696508783042425000,6.571425048828125,1.3698492050170898,1.0838532447814941,2.0749504566192627
1696508783058355500,6.58735546875,1.0070276260375977,1.2871688604354858,0.6826369762420654
1696508783074163500,6.60316357421875,1.105504035949707,1.3762221336364746,-0.5518414378166199
1696508783090002200,6.619002197265625,2.517465591430664,1.1405749320983887,-1.4163604974746704
1696508783105840600,6.634840576171875,4.65135383605957,1.1878175735473633,-1.4338529109954834
1696508783121679400,6.650679443359375,6.456818580627441,1.5389089584350586,-0.4011380672454834
1696508783137548500,6.666548583984375,6.658638954162598,2.131483316421509,0.878075122833252
1696508783153387000,6.682386962890625,5.753293037414551,1.9329116344451904,0.5999040603637695
1696508783169256200,6.698256103515625,5.277780532836914,1.1561521291732788,-0.8514319062232971
1696508783185064200,6.714064208984375,5.837141990661621,0.054882943630218506,-2.6607000827789307
1696508783200903000,6.72990283203125,6.015649795532227,-1.2685261964797974,-2.8940534591674805
1696508783216802600,6.745802490234375,4.903980255126953,-2.492509365081787,-1.5450714826583862
1696508783232641300,6.761641357421875,2.449131965637207,-3.271328926086426,0.4130174219608307
1696508783248541000,6.777541015625,-0.3927288055419922,-3.361825942993164,1.04928719997406
1696508783264318500,6.793318359375,-2.868441581726074,-3.1202712059020996,1.3407912254333496
1696508783280126500,6.80912646484375,-3.9588308334350586,-2.5394599437713623,0.08288997411727905
1696508783296026000,6.825026123046875,-3.983186721801758,-1.8644053936004639,-1.6244885921478271
1696508783311834400,6.84083447265625,-3.175016403198242,-1.2996288537979126,-2.022183418273926
1696508783327703600,6.85670361328125,-2.8851890563964844,-1.0873998403549194,-1.1801856756210327
1696508783343511600,6.872511474609375,-2.2731871604919434,-0.794892430305481,-0.08612211048603058
1696508783359350300,6.888350341796875,-2.067592144012451,-0.475425124168396,0.9283996224403381
1696508783375250000,6.90425,-2.6324024200439453,-0.1389392614364624,1.1872706413269043
1696508783391088400,6.92008837890625,-4.030149936676025,-0.03331005573272705,0.4521017074584961
1696508783406957600,6.93595751953125,-4.5016560554504395,0.19311130046844482,0.08848175406455994
1696508783422704600,6.95170458984375,-3.9274792671203613,0.275388240814209,0.2502378523349762
1696508783438543400,6.96754345703125,-3.1937170028686523,0.19282066822052002,0.6201927661895752
1696508783454412500,6.98341259765625,-3.1894097328186035,0.16289031505584717,0.7423339486122131
1696508783470190000,6.999190185546875,-4.098767280578613,0.24813663959503174,0.6701420545578003
1696508783486089700,7.01508984375,-4.295384883880615,0.33972370624542236,0.526624858379364
1696508783501928400,7.030928466796875,-2.617368698120117,0.6615794897079468,0.6652710437774658
1696508783517767000,7.046766845703125,-1.1819782257080078,0.8655495643615723,0.5034669637680054
1696508783533636000,7.062635986328125,-0.7315216064453125,1.0771780014038086,0.29215097427368164
1696508783549413600,7.07841357421875,-0.3319587707519531,1.232299566268921,0.3255268335342407
1696508783565282800,7.09428271484375,1.3733015060424805,1.4378591775894165,0.821556806564331
1696508783581090800,7.1100908203125,3.0337305068969727,1.6218184232711792,1.1038557291030884
1696508783596929500,7.125929443359375,3.788341522216797,1.6089682579040527,0.7777959108352661
1696508783612768300,7.141768310546875,4.6219282150268555,1.3811174631118774,-0.020237445831298828
1696508783628637400,7.157637451171875,5.632453918457031,1.2579317092895508,-0.8475568890571594
1696508783644537000,7.173537109375,6.009718894958496,1.5933504104614258,-0.9468288421630859
1696508783660345000,7.189344970703125,4.762982368469238,2.5596039295196533,-0.5363115072250366
1696508783676305700,7.2053056640625,2.2165327072143555,3.105851888656616,0.20840656757354736
1696508783692236000,7.221236083984375,1.1541118621826172,2.791440010070801,-0.4291301965713501
1696508783708013600,7.237013671875,3.3448486328125,0.8430993556976318,-0.969937264919281
1696508783723882800,7.2528828125,5.5820817947387695,-1.1665019989013672,-0.3811182379722595
1696508783739660300,7.268660400390625,4.924176216125488,-2.5284976959228516,1.6401084661483765
1696508783755457800,7.284457763671875,2.1081132888793945,-3.2665176391601562,3.68947696685791
1696508783771327000,7.300326904296875,-0.5701208114624023,-3.2554073333740234,4.578822612762451
1696508783787165700,7.316165771484375,-2.2388014793395996,-2.8815865516662598,4.296566009521484
1696508783803004200,7.332004150390625,-2.4475479125976562,-2.3785104751586914,2.84869384765625
1696508783818812400,7.3478125,-2.5255818367004395,-1.8428384065628052,0.9351959228515625
1696508783834651000,7.36365087890625,-2.528449058532715,-1.59442937374115,-0.3263082504272461
1696508783850550500,7.379550537109375,-1.9953317642211914,-1.5798039436340332,-0.6938883066177368
1696508783866328300,7.395328369140625,-0.8528308868408203,-1.3149033784866333,-0.493933767080307
1696508783882228000,7.41122802734375,0.4166851043701172,-0.8707376718521118,-0.4166906476020813
1696508783898005500,7.427005615234375,0.05805015563964844,-0.3944229781627655,-0.874964714050293
1696508783913874700,7.442874755859375,-1.2379884719848633,-0.06444069743156433,-1.2070140838623047
1696508783929743600,7.45874365234375,-3.115574359893799,0.14020124077796936,-1.2355173826217651
1696508783945612800,7.47461279296875,-4.4204607009887695,0.3240094482898712,-0.960394024848938
1696508783961451500,7.490451416015625,-5.263050079345703,0.3879040479660034,-0.48758259415626526
1696508783977290000,7.5062900390625,-5.16713285446167,0.418887734413147,0.12706708908081055
1696508783993128700,7.522128662109375,-4.867763519287109,0.3312290906906128,0.40184515714645386
1696508784008998000,7.537997802734375,-4.573006629943848,0.36743712425231934,0.5321608185768127
1696508784024745000,7.553744873046875,-4.252903461456299,0.42972666025161743,1.0236215591430664
1696508784040614100,7.5696142578125,-3.594371795654297,0.340745747089386,1.2722198963165283
1696508784056452600,7.58545263671875,-0.7136335372924805,0.45543867349624634,1.3066754341125488
1696508784072260900,7.6012607421875,2.8707313537597656,0.7566133737564087,2.1632914543151855
1696508784088160500,7.617160400390625,4.319276809692383,0.7800077199935913,3.2378857135772705
1696508784103999000,7.6329990234375,3.2515687942504883,0.9055076837539673,3.3090245723724365
1696508784119837700,7.648837646484375,2.1527109146118164,1.3127981424331665,1.9983347654342651
1696508784135676400,7.664676513671875,2.4951562881469727,1.5604084730148315,0.33073800802230835
1696508784151515000,7.680514892578125,3.8204469680786133,1.703696370124817,-0.9088806509971619
1696508784167384000,7.696384033203125,5.25868034362793,1.8344759941101074,-1.0311599969863892
1696508784183253200,7.712253173828125,6.66190242767334,2.2794296741485596,-0.2921608090400696
1696508784199153000,7.72815283203125,5.453686714172363,2.708894729614258,-0.5380685329437256
1696508784214961000,7.7439609375,2.516299247741699,2.416919231414795,-1.328982949256897
1696508784230738700,7.75973876953125,1.8554916381835938,0.5608243942260742,-1.9875661134719849
1696508784246668800,7.775668701171875,3.6434192657470703,-2.226306438446045,-1.7230488061904907
1696508784262446300,7.7914462890625,4.968060493469238,-4.672667503356934,0.05253148078918457
1696508784278315500,7.8073154296875,5.421363830566406,-5.796349048614502,2.5200588703155518
1696508784294123500,7.82312353515625,4.029430389404297,-5.372289180755615,3.565213441848755
1696508784309931800,7.838931884765625,1.086660385131836,-4.081892013549805,2.051009178161621
1696508784325801000,7.854801025390625,-2.4467062950134277,-2.360161304473877,-1.0523141622543335
1696508784341670000,7.870669921875,-4.548035144805908,-0.7371721267700195,-3.845155715942383
1696508784357539000,7.8865390625,-4.732414722442627,0.2350071668624878,-4.769598484039307
1696508784373347300,7.902347412109375,-3.6100754737854004,0.16438591480255127,-3.2408287525177
1696508784389124900,7.918124755859375,-2.327422618865967,-0.15612059831619263,-1.6205748319625854
1696508784405055000,7.934054931640625,-0.9330530166625977,-0.36527788639068604,-0.08373069763183594
1696508784420893700,7.949893798828125,-0.614954948425293,-0.3263074457645416,0.6684260368347168
1696508784436763000,7.965762939453125,-1.7452902793884277,-0.2163962721824646,0.9114634990692139
1696508784452754000,7.98175390625,-3.117982864379883,-0.12424099445343018,0.4358328580856323
1696508784468592600,7.997592529296875,-4.120912551879883,0.05643385648727417,-0.16202282905578613
1696508784484461800,8.0134619140625,-4.715817451477051,0.20621353387832642,-0.5885050892829895
1696508784500300300,8.02930029296875,-5.026899814605713,0.3695371747016907,-0.5915852785110474
1696508784516139000,8.045138916015626,-4.721230983734131,0.4652784466743469,-0.3045036792755127
1696508784532008200,8.06100830078125,-4.527080535888672,0.5779533386230469,-0.2661020755767822
1696508784547846700,8.0768466796875,-4.224084854125977,0.661902666091919,-0.30189239978790283
1696508784563777000,8.092777099609375,-3.1799778938293457,0.703935980796814,-0.44677114486694336
1696508784579554600,8.108554443359376,-0.660313606262207,0.46416425704956055,-0.5138751268386841
1696508784595454200,8.1244541015625,1.823857307434082,0.4453200101852417,-0.3075737953186035
1696508784611353900,8.140353759765626,3.4726362228393555,0.7634372711181641,0.6025012731552124
1696508784627131400,8.15613134765625,3.208322525024414,0.9643542766571045,1.1733547449111938
1696508784643092200,8.17209228515625,2.1090049743652344,1.265629529953003,0.8980592489242554
1696508784659022300,8.188022216796876,1.8007564544677734,1.3473809957504272,-0.08088648319244385
1696508784674952400,8.203952392578126,3.0717315673828125,1.4370059967041016,-1.03415846824646
1696508784690882600,8.219882568359376,4.941872596740723,1.5637702941894531,-0.49269819259643555
1696508784706782200,8.2357822265625,8.09601879119873,2.472867012023926,0.15749645233154297
1696508784722621000,8.251620849609376,7.673985481262207,3.553955078125,-0.054890990257263184
1696508784738581500,8.26758154296875,3.403596878051758,3.8643007278442383,-0.44017326831817627
1696508784754481200,8.283481201171876,0.8180580139160156,2.824420928955078,-0.7528037428855896
1696508784770350300,8.299350341796876,3.197443962097168,0.547563910484314,-0.2994300127029419
1696508784786189000,8.31518896484375,3.8859853744506836,-1.4395033121109009,0.6733983755111694
1696508784802027800,8.33102783203125,2.8135461807250977,-2.7610654830932617,2.859797477722168
1696508784817927400,8.346927490234375,0.6814775466918945,-3.3549835681915283,4.765810012817383
1696508784833857500,8.362857421875,-1.324629783630371,-3.2989511489868164,5.322275638580322
1696508784849635000,8.378635009765626,-2.4160265922546387,-2.9229440689086914,4.456411361694336
1696508784865443000,8.394443115234376,-2.901761531829834,-2.530548572540283,2.966005325317383
1696508784881373400,8.41037353515625,-2.722470760345459,-2.0951571464538574,1.312031865119934
1696508784897181400,8.426181396484376,-2.2201342582702637,-1.9331562519073486,0.3832876682281494
1696508784913050600,8.442050537109376,-2.170706272125244,-1.6456902027130127,-0.43366336822509766
1696508784928889300,8.457889404296875,-2.324772834777832,-1.213118553161621,-0.9097527861595154
1696508784944697300,8.473697265625,-3.1989336013793945,-0.7491018176078796,-1.325465202331543
1696508784960627500,8.48962744140625,-3.85357666015625,-0.3893432021141052,-1.6396151781082153
1696508784976405000,8.505405029296876,-4.152701377868652,-0.29103827476501465,-2.0885372161865234
1696508784992274200,8.521274169921876,-3.3246865272521973,-0.10067206621170044,-1.981429100036621
1696508785008051700,8.5370517578125,-2.7435803413391113,-0.005793929100036621,-1.6278048753738403
1696508785023860000,8.55285986328125,-3.323338508605957,0.1474599838256836,-1.0799283981323242
1696508785039698400,8.568698486328126,-4.441885471343994,0.1240229606628418,-0.5449711084365845
1696508785055476200,8.584476318359375,-4.90925931930542,0.3747193217277527,-0.1830441951751709
1696508785071345400,8.600345458984375,-4.33469295501709,0.6260769963264465,-0.393513560295105
1696508785087153400,8.6161533203125,-2.081772804260254,1.1633741855621338,-0.7954273819923401
1696508785103022600,8.632022705078125,-0.1576213836669922,1.4544479846954346,-0.8016144633293152
1696508785118861000,8.647861083984376,1.9046239852905273,1.9871158599853516,-0.538140058517456
1696508785134730200,8.663730224609376,2.7048397064208984,2.637058973312378,-0.1209787130355835
1696508785150599400,8.679599365234376,4.412020683288574,3.0723633766174316,0.34693801403045654
1696508785166407400,8.695407470703126,5.213149070739746,2.8758327960968018,0.996328592300415
1696508785182307000,8.71130712890625,4.761086463928223,2.47619366645813,1.269834280014038
1696508785198207000,8.72720703125,2.329479217529297,1.8367338180541992,1.4381660223007202
1696508785214015000,8.743014892578126,1.3276958465576172,1.160478949546814,2.159311294555664
1696508785229853700,8.758853759765625,2.6754112243652344,0.37779349088668823,3.0653605461120605
1696508785245753300,8.77475341796875,3.909173011779785,-0.38602542877197266,3.1038818359375
1696508785261653000,8.790653076171875,4.316278457641602,-1.6685841083526611,2.1220622062683105
1696508785277522000,8.80652197265625,6.618780136108398,-3.160886287689209,1.2916711568832397
1696508785293391000,8.82239111328125,8.4681396484375,-4.513115406036377,2.529057741165161
1696508785309290800,8.838290771484376,7.939243316650391,-4.799380302429199,3.9877877235412598
1696508785325190400,8.8541904296875,5.477174758911133,-4.227161407470703,3.3819239139556885
1696508785340968200,8.86996826171875,1.8809833526611328,-3.3054308891296387,1.1412076950073242
1696508785356898300,8.885898193359376,-0.3943519592285156,-2.0970852375030518,-1.1542764902114868
1696508785372736800,8.90173681640625,-1.681955337524414,-1.178576946258545,-2.0504958629608154
1696508785388697600,8.917697509765626,-1.5773577690124512,-0.7541786432266235,-1.9431538581848145
1696508785404597200,8.93359716796875,-1.4450435638427734,-0.5653274059295654,-2.097994565963745
1696508785420436000,8.94943603515625,-1.7693285942077637,-0.4445783793926239,-2.5743672847747803
1696508785436427000,8.965427001953126,-2.2715325355529785,-0.3188225030899048,-2.957395076751709
1696508785452235300,8.9812353515625,-2.0594840049743652,-0.0030513405799865723,-3.391055107116699
1696508785468195800,8.99719580078125,-2.732309341430664,0.18384191393852234,-3.2248501777648926
1696508785483943000,9.01294287109375,-3.834416389465332,0.24750825762748718,-2.5212180614471436
1696508785499781600,9.02878173828125,-5.05088996887207,0.2904711961746216,-2.0741000175476074
1696508785515681300,9.044681396484375,-5.611081600189209,0.2577008605003357,-1.5804626941680908
1696508785531519700,9.060519775390626,-5.5815110206604,0.14152562618255615,-1.496869683265686
1696508785547419400,9.07641943359375,-4.787139415740967,0.011599183082580566,-1.3399051427841187
1696508785563319000,9.092319091796876,-3.8794093132019043,0.011089205741882324,-1.013598918914795
1696508785579188200,9.108188232421876,-3.909337043762207,0.049892961978912354,-0.7267674207687378
1696508785595057400,9.124057373046876,-3.9469261169433594,0.4620221257209778,-0.44819438457489014
1696508785610896100,9.139896240234375,-3.542848587036133,0.9714423418045044,-0.786288857460022
1696508785626704100,9.1557041015625,-2.1540780067443848,1.2188818454742432,-1.328140377998352
1696508785642542800,9.17154296875,1.043370246887207,1.2878363132476807,-0.35147953033447266
1696508785658350800,9.187350830078126,2.9976634979248047,1.3559632301330566,0.9565572738647461
1696508785674281000,9.203281005859376,2.9706907272338867,1.3784253597259521,1.4122297763824463
1696508785690028000,9.219028076171876,2.114042282104492,1.39594304561615,1.3242809772491455
1696508785705927700,9.234927734375,1.745854377746582,1.2987072467803955,0.9507381916046143
1696508785721766400,9.250766357421876,2.6740407943725586,1.1678415536880493,1.5411608219146729
1696508785737635600,9.266635498046876,4.502018928527832,1.3857369422912598,2.241203546524048
1696508785753565700,9.282565673828126,6.1902971267700195,1.5772440433502197,2.4248807430267334
1696508785769495800,9.298495849609376,6.80150032043457,1.4843887090682983,2.2126286029815674
1696508785785426200,9.31442626953125,6.56689453125,0.7265536785125732,1.2511332035064697
1696508785801325800,9.330325927734375,5.065402984619141,-0.0907280445098877,1.303675889968872
1696508785817286400,9.346286376953126,3.073908805847168,-1.1505155563354492,2.3004188537597656
1696508785833094700,9.3620947265625,1.8104095458984375,-2.169158458709717,3.4072067737579346
1696508785849055200,9.37805517578125,1.5641803741455078,-2.6792755126953125,4.3206868171691895
1696508785864955000,9.393954833984376,0.5073966979980469,-2.9020931720733643,4.867349624633789
1696508785880885000,9.409885009765626,-0.5772666931152344,-2.642008066177368,4.891890525817871
1696508785896723700,9.4257236328125,-1.9642314910888672,-2.2075092792510986,3.981024980545044
1696508785912593000,9.441593017578125,-2.873476028442383,-1.7735910415649414,2.7552859783172607
1696508785928523000,9.45752294921875,-3.280874729156494,-1.30072021484375,1.4297685623168945
1696508785944422700,9.473422607421876,-2.717193126678467,-0.826821506023407,0.3303039073944092
1696508785960322300,9.489322265625,-1.9579639434814453,-0.4168195128440857,-0.6399321556091309
1696508785976161000,9.5051611328125,-1.7083311080932617,0.04776012897491455,-1.3549866676330566
1696508785992030200,9.5210302734375,-2.109740734100342,0.28822025656700134,-1.397374153137207
1696508786007838200,9.536838134765626,-3.206821918487549,0.3716900944709778,-1.1954469680786133
1696508786023737900,9.55273779296875,-4.701111793518066,0.16779306530952454,-0.9187788963317871
1696508786039545900,9.5685458984375,-5.798206329345703,-0.018301457166671753,-0.452756404876709
1696508786055384600,9.584384521484376,-6.236630439758301,-0.272072434425354,-0.5790930986404419
1696508786071223300,9.600223388671875,-5.154017448425293,-0.15122802555561066,-0.3278557062149048
1696508786087031300,9.61603125,-4.3508076667785645,-0.08030213415622711,-0.06518864631652832
1696508786102900500,9.631900390625,-3.4466166496276855,0.0014418959617614746,0.3979635238647461
1696508786118708500,9.64770849609375,-3.7842044830322266,0.2733514606952667,0.5697841644287109
1696508786134547200,9.663547119140626,-4.514544486999512,0.7143239974975586,0.02542436122894287
1696508786150416400,9.67941650390625,-3.2088608741760254,1.3174619674682617,-0.23865854740142822
1696508786166224400,9.695224365234376,-0.6175785064697266,1.2999472618103027,0.2177363634109497
1696508786182093600,9.711093505859376,2.2738170623779297,1.4039987325668335,1.0252528190612793
1696508786197932300,9.726932373046875,3.2885236740112305,1.4749650955200195,1.5633918046951294
1696508786213740300,9.742740234375,3.35329532623291,1.6322643756866455,2.124880790710449
1696508786229609500,9.758609375,3.094113349914551,1.9853057861328125,1.8248169422149658
1696508786245417500,9.77441748046875,3.4433183670043945,2.3662283420562744,0.7363982200622559
1696508786261286700,9.79028662109375,3.7300195693969727,2.5988082885742188,-0.49356532096862793
1696508786277095000,9.806094970703125,4.737971305847168,2.4853808879852295,-1.291229009628296
1696508786292994600,9.82199462890625,6.591373443603516,2.1777360439300537,-0.5919256210327148
1696508786308924700,9.837924560546876,7.014074325561523,1.7268459796905518,0.3740764856338501
1696508786324793900,9.8537939453125,5.6328840255737305,1.0771384239196777,0.6635254621505737
1696508786340693500,9.869693603515625,3.854537010192871,0.23578301072120667,1.083980917930603
1696508786356501500,9.88550146484375,1.6493101119995117,-1.3523820638656616,1.3115160465240479
1696508786372401200,9.901401123046876,1.6992168426513672,-2.8049590587615967,1.0979880094528198
1696508786388331300,9.917331298828126,4.074131965637207,-4.0393452644348145,1.9360219240188599
1696508786404200400,9.933200439453126,5.072763442993164,-4.523115158081055,3.230644941329956
1696508786420130600,9.949130615234376,4.027976989746094,-4.203348159790039,2.9715614318847656
1696508786435999700,9.964999755859376,1.6408462524414062,-3.2463910579681396,1.486327052116394
1696508786451899400,9.9808994140625,-0.8967809677124023,-1.9459789991378784,-0.5269619226455688
1696508786467768600,9.9967685546875,-3.078192710876465,-0.7974477410316467,-1.9315873384475708
1696508786483698700,10.01269873046875,-4.330154895782471,-0.06525349617004395,-2.217278003692627
1696508786499598300,10.028598388671876,-3.9632229804992676,0.2488701343536377,-2.223249673843384
1696508786515437000,10.04443701171875,-3.4905762672424316,0.3378477692604065,-2.0432839393615723
1696508786531306200,10.06030615234375,-3.503943920135498,0.37076276540756226,-1.6866984367370605
1696508786547206000,10.076205810546876,-3.5831618309020996,0.3913595676422119,-1.4001175165176392
1696508786563014000,10.092013916015626,-3.612269878387451,0.4335968494415283,-1.4081754684448242
1696508786578944300,10.1079443359375,-3.5363779067993164,0.5910788774490356,-1.5718685388565063
1696508786594782700,10.12378271484375,-4.24568510055542,0.6841872930526733,-1.8068040609359741
1696508786610743600,10.13974365234375,-4.8889665603637695,0.6853525638580322,-1.7900489568710327
1696508786626612700,10.15561279296875,-5.080400466918945,0.42616498470306396,-1.1956042051315308
1696508786642390300,10.171390380859375,-4.634580612182617,0.35716712474823,-0.18019914627075195
1696508786658259500,10.187259521484375,-4.362837314605713,0.5184634923934937,0.4555295705795288
1696508786674098000,10.203097900390626,-3.932314872741699,0.673649787902832,0.26253652572631836
1696508786689936600,10.2189365234375,-2.5739493370056152,0.7957406640052795,-0.2662464380264282
1696508786705805800,10.234805908203125,-0.3682518005371094,0.8034557700157166,-0.4302077293395996
1696508786721644300,10.250644287109376,1.4261646270751953,0.7008436322212219,0.1811208724975586
1696508786737544000,10.2665439453125,2.7977609634399414,0.7664719223976135,1.7446372509002686
1696508786753352200,10.282352294921875,3.3295469284057617,1.043694019317627,2.859238624572754
1696508786769190700,10.298190673828126,2.590634346008301,1.2400434017181396,2.2181291580200195
1696508786785121000,10.31412109375,2.205371856689453,1.3495782613754272,0.9745714664459229
1696508786800868000,10.3298681640625,2.4176025390625,1.340744972229004,-0.006804704666137695
1696508786816828700,10.34582861328125,2.9697580337524414,1.3143436908721924,0.3977295160293579
1696508786832789200,10.361789306640626,3.464946746826172,1.0639419555664062,1.4818992614746094
1696508786848597500,10.377597412109376,4.256877899169922,0.29479604959487915,2.0493574142456055
1696508786864497200,10.3934970703125,5.955583572387695,-0.7443932294845581,1.7895079851150513
1696508786880305200,10.40930517578125,6.548317909240723,-1.479574203491211,2.2011029720306396
1696508786896266000,10.425265869140626,5.790313720703125,-1.9570508003234863,2.8955817222595215
1696508786912135200,10.44113525390625,4.694027900695801,-2.002309560775757,3.0776424407958984
1696508786928004000,10.457004150390626,2.704071044921875,-1.8065643310546875,2.6650471687316895
1696508786943965000,10.47296484375,0.9700164794921875,-1.3200409412384033,2.050014019012451
1696508786959864600,10.488864501953126,-0.31695556640625,-0.8215897083282471,1.5608769655227661
1696508786975764200,10.50476416015625,-1.3246793746948242,-0.38770708441734314,1.1785304546356201
1696508786991572200,10.520572265625,-1.5529909133911133,-0.2949526607990265,0.8885881900787354
1696508787007441400,10.53644140625,-1.856163501739502,-0.5207605361938477,0.6123870611190796
1696508787023310600,10.552310546875,-2.6085190773010254,-0.8488117456436157,1.0390498638153076
1696508787039179800,10.5681796875,-3.441378116607666,-1.0964441299438477,1.4891105890274048
1696508787055049000,10.584049072265625,-3.748007297515869,-1.152710199356079,1.960684061050415
1696508787070857000,10.59985693359375,-3.415412425994873,-1.1758363246917725,2.018069267272949
1696508787086665200,10.615665283203125,-3.282459259033203,-0.9315227270126343,1.3862518072128296
1696508787102534100,10.6315341796875,-3.252704620361328,-0.47212550044059753,0.7705079317092896
1696508787118403300,10.6474033203125,-3.736433506011963,-0.2553361654281616,0.3651276230812073
1696508787134303000,10.663302978515626,-4.246891498565674,-0.13269010186195374,-0.0520094633102417
1696508787150111200,10.679111328125,-4.933371067047119,0.12652280926704407,-0.411415159702301
1696508787165949700,10.69494970703125,-6.047557830810547,0.3564525246620178,-0.20109409093856812
1696508787181788400,10.710788330078126,-5.819879531860352,0.7384147047996521,0.43040943145751953
1696508787197566000,10.72656591796875,-5.4581685066223145,1.028248906135559,1.0616962909698486
1696508787213465600,10.742465576171876,-4.051003456115723,1.1957135200500488,0.8618642091751099
1696508787229304300,10.75830419921875,-0.8817853927612305,1.3310256004333496,0.5418555736541748
1696508787245142800,10.774142822265626,2.505758285522461,1.3813426494598389,0.9568047523498535
1696508787261012000,10.790011962890626,4.118326187133789,1.3958709239959717,2.155223846435547
1696508787276881200,10.805881103515626,4.780364036560059,1.4648387432098389,1.7466734647750854
1696508787292750300,10.821750244140626,4.552463531494141,1.606917142868042,0.7054491639137268
1696508787308527900,10.83752783203125,4.063376426696777,1.6546084880828857,0.15897014737129211
1696508787324366600,10.85336669921875,4.890440940856934,1.437328577041626,-0.34671440720558167
1696508787340266200,10.869266357421875,6.377189636230469,1.5128480195999146,-0.07745689153671265
1696508787356074200,10.88507421875,6.506013870239258,1.2687535285949707,0.6292992830276489
1696508787371974000,10.900973876953126,5.238955497741699,1.1424700021743774,0.35288673639297485
1696508787387782100,10.9167822265625,2.7225608825683594,0.5080686807632446,-1.0498359203338623
1696508787403681800,10.932681884765625,1.7147912979125977,-1.0135250091552734,-1.8903594017028809
1696508787419642400,10.948642333984376,3.8206024169921875,-2.7965087890625,-1.237180233001709
1696508787435603200,10.964603271484375,4.1612396240234375,-3.755239486694336,0.27689072489738464
1696508787451472100,10.98047216796875,3.6893625259399414,-3.798074245452881,0.8583016395568848
1696508787467463400,10.99646337890625,2.740924835205078,-3.0539674758911133,-0.2780872583389282
1696508787483302100,11.01230224609375,1.073690414428711,-1.8017563819885254,-2.462151288986206
1696508787499140600,11.028140625,-1.1919078826904297,-0.5855315923690796,-4.043676376342773
1696508787515071000,11.044071044921875,-2.56187105178833,0.034053921699523926,-3.5510456562042236
1696508787531001000,11.0600009765625,-2.0104150772094727,-0.08296453952789307,-2.8457484245300293
1696508787546900700,11.075900634765626,0.11037731170654297,-0.40146613121032715,-1.657961368560791
1696508787562678300,11.09167822265625,0.8399143218994141,-0.7808431386947632,-0.3735898733139038
1696508787578608400,11.1076083984375,-0.31880760192871094,-0.7430623173713684,0.13242489099502563
1696508787594508000,11.123508056640626,-2.241058349609375,-0.5119794607162476,-0.10686308145523071
1696508787610468900,11.13946875,-3.823805809020996,-0.4231945276260376,-0.42307284474372864
1696508787626276900,11.15527685546875,-4.353358745574951,-0.4355788230895996,-0.23681026697158813
1696508787642207000,11.17120703125,-4.8888959884643555,-0.5619426965713501,0.029502451419830322
1696508787658076200,11.187076171875,-5.308923244476318,-0.6583118438720703,0.16910558938980103
1696508787673945300,11.2029453125,-5.59485387802124,-0.7360025644302368,-0.22510600090026855
1696508787689875500,11.21887548828125,-4.942075729370117,-0.7049193382263184,-1.0891953706741333
1696508787705683700,11.23468359375,-3.7051191329956055,-0.44167816638946533,-1.0459487438201904
1696508787721461200,11.250461181640626,-3.551182270050049,-0.0065152645111083984,-0.0670960545539856
1696508787737361000,11.26636083984375,-3.6580333709716797,0.3754870891571045,0.51295405626297
1696508787753169000,11.2821689453125,-4.17249870300293,0.8730628490447998,0.663866400718689
1696508787769007600,11.298007568359376,-3.691789150238037,1.3318586349487305,0.3897216320037842
1696508787784846300,11.313846435546875,-1.764918327331543,1.7821340560913086,0.27424800395965576
1696508787800776400,11.3297763671875,0.37517356872558594,2.00606107711792,0.3936290740966797
1696508787816676000,11.345676025390626,2.551624298095703,2.1994118690490723,0.2094341516494751
1696508787832484000,11.361484130859376,3.664525032043457,2.0563101768493652,0.3146742582321167
1696508787848383700,11.3773837890625,4.468533515930176,1.9271774291992188,0.20657050609588623
1696508787864192000,11.39319189453125,6.027371406555176,2.240079641342163,0.3809303045272827
1696508787880000000,11.409,6.433840751647949,2.8310189247131348,-0.054552435874938965
1696508787895899600,11.424899658203126,3.672471046447754,3.9072864055633545,0.552302360534668
1696508787911646700,11.440646728515626,0.5453605651855469,4.192744255065918,1.3431684970855713
1696508787927546400,11.45654638671875,1.4998998641967773,2.756196975708008,0.5079513788223267
1696508787943354600,11.472354736328125,5.044247627258301,0.1660017967224121,-0.4449833631515503
1696508787959193000,11.488193115234376,6.398838996887207,-1.9212865829467773,0.08847570419311523
1696508787975092700,11.5040927734375,2.3905553817749023,-3.0709354877471924,2.5282857418060303
1696508787990901000,11.51990087890625,-1.5371456146240234,-3.2023799419403076,4.221663475036621
1696508788006709000,11.535708984375,-3.0834226608276367,-3.1036252975463867,4.22830867767334
1696508788022578200,11.551578125,-2.7581820487976074,-2.7581121921539307,3.2928054332733154
1696508788038417000,11.5674169921875,-2.046576976776123,-2.2735464572906494,1.7162812948226929
1696508788054286000,11.5832861328125,-1.097733497619629,-1.993628740310669,0.35549187660217285
1696508788070155000,11.599155029296876,1.8189888000488281,-1.3403570652008057,-0.7445154190063477
1696508788086054700,11.6150546875,3.621140480041504,-0.6700515747070312,-2.072094440460205
1696508788101923800,11.630923828125,2.971820831298828,-0.1861591339111328,-3.255736827850342
1696508788117701400,11.646701416015626,0.5333642959594727,0.22572541236877441,-3.0628771781921387
1696508788133601000,11.66260107421875,-2.193540573120117,-0.03784787654876709,-2.0558221340179443
1696508788149348000,11.67834814453125,-4.876070499420166,-0.36334311962127686,-1.1978133916854858
1696508788165309000,11.694308837890626,-5.884843826293945,-0.7552432417869568,-0.7687033414840698
1696508788181208600,11.71020849609375,-5.707065582275391,-0.9469112157821655,-0.26770901679992676
1696508788197108200,11.726108154296876,-5.106064796447754,-1.072164535522461,0.277904748916626
1696508788212947000,11.741947021484375,-4.85874080657959,-0.9960118532180786,0.9036604166030884
1696508788228755000,11.7577548828125,-5.504557132720947,-0.9678062200546265,0.920425534248352
1696508788244654600,11.773654541015626,-4.917688846588135,-0.5141797065734863,0.3373466730117798
1696508788260432100,11.78943212890625,-3.431609630584717,0.22972261905670166,-0.6554851531982422
1696508788276362500,11.805362548828125,-1.1564712524414062,1.026745319366455,-0.29330897331237793
1696508788292262100,11.82126220703125,0.8379402160644531,1.3464255332946777,1.3821545839309692
1696508788308070100,11.837070068359376,2.1103057861328125,1.502669334411621,2.6545119285583496
1696508788324000300,11.853000244140626,3.4422569274902344,1.827088713645935,2.599621295928955
1696508788339930400,11.868930419921876,3.596914291381836,2.3552799224853516,1.3459796905517578
1696508788355860700,11.88486083984375,3.3539352416992188,3.071347236633301,-0.25409841537475586
1696508788371760400,11.900760498046875,3.866269111633301,3.455766439437866,-1.056775689125061
1696508788387690500,11.9166904296875,5.336938858032227,3.0363821983337402,-1.4811702966690063
1696508788403559700,11.9325595703125,7.590797424316406,2.343545436859131,-0.1133657693862915
1696508788419398100,11.948398193359376,7.00590705871582,2.059795618057251,1.1715248823165894
1696508788435359000,11.96435888671875,4.390942573547363,1.8271980285644531,0.7786617279052734
1696508788451228200,11.980228271484375,2.9194507598876953,0.7467185258865356,-0.03802931308746338
1696508788467219200,11.99621923828125,2.5859689712524414,-1.1424413919448853,-0.6081744432449341
1696508788483088400,12.01208837890625,2.87042236328125,-3.2643771171569824,-0.19703757762908936
1696508788498896600,12.027896728515625,4.8620100021362305,-4.630373477935791,1.9312859773635864
1696508788514704600,12.04370458984375,5.4942216873168945,-4.9634294509887695,3.863628387451172
1696508788530543400,12.05954345703125,3.1607065200805664,-4.04808235168457,3.580063581466675
1696508788546412500,12.07541259765625,-2.10636568069458,-2.0424880981445312,0.6011448502540588
1696508788562281500,12.091281494140626,-4.696807861328125,-0.5177719593048096,-2.158675193786621
1696508788578150700,12.107150634765626,-4.0627546310424805,0.22226262092590332,-2.9262404441833496
1696508788593989400,12.1229892578125,-2.6909608840942383,0.1433582305908203,-1.834254264831543
1696508788609827800,12.138827880859376,-1.6213536262512207,-0.11146759986877441,-0.8755080103874207
1696508788625727500,12.1547275390625,-1.3721542358398438,-0.3220709562301636,-0.24781417846679688
1696508788641627400,12.17062744140625,-1.5555644035339355,-0.33164894580841064,-0.25105172395706177
1696508788657435400,12.186435302734376,-2.0024633407592773,-0.3419163227081299,-0.4627608060836792
1696508788673335000,12.2023349609375,-3.395048141479492,-0.5401467084884644,-0.7025885581970215
1696508788689204200,12.218204345703125,-4.6447367668151855,-0.5440605878829956,-0.4829648733139038
1696508788705042700,12.234042724609376,-5.544641017913818,-0.6300370693206787,-0.3619563579559326
1696508788720912000,12.249911865234376,-5.88767147064209,-0.5861246585845947,-0.9893301129341125
1696508788736689400,12.265689453125,-5.432876110076904,-0.47508418560028076,-0.9868434071540833
1696508788752528100,12.281528076171876,-4.467954635620117,-0.3687458038330078,-0.28468143939971924
1696508788768427800,12.297427734375,-3.6774635314941406,-0.1460254192352295,0.18554604053497314
1696508788784205300,12.313205322265626,-2.7612013816833496,0.2137281894683838,-0.08394873142242432
1696508788800032800,12.32903271484375,-2.0225768089294434,0.8524537086486816,-0.6085572242736816
1696508788815871500,12.34487158203125,-1.1585254669189453,1.3726580142974854,-0.5901796817779541
1696508788831710000,12.3607099609375,0.9414119720458984,1.484933853149414,-0.45699310302734375
1696508788847548700,12.376548583984375,3.514735221862793,1.4732651710510254,0.12802720069885254
1696508788863387400,12.392387451171874,4.138769149780273,1.495288372039795,1.114173412322998
1696508788879256300,12.40825634765625,3.5146217346191406,1.392961025238037,1.5112524032592773
1696508788895095000,12.424094970703125,4.452990531921387,1.3476264476776123,1.542581558227539
1696508788910872600,12.43987255859375,5.70919132232666,1.4289741516113281,1.4367485046386719
1696508788926802700,12.455802734375,6.53659725189209,2.139845132827759,1.297179937362671
1696508788942580500,12.47158056640625,5.008140563964844,3.0900862216949463,1.2011775970458984
1696508788958480100,12.487480224609374,1.698629379272461,3.91530704498291,0.34347963333129883
1696508788974257700,12.503257568359375,1.8345308303833008,3.189610481262207,-0.9055064916610718
1696508788990096400,12.519096435546874,3.3632850646972656,1.2787301540374756,-0.7046374082565308
1696508789005965300,12.53496533203125,3.1827878952026367,-0.5387914180755615,1.4410436153411865
1696508789021743000,12.5507431640625,0.2230052947998047,-1.6802425384521484,3.4884071350097656
1696508789037581600,12.56658154296875,-1.3841261863708496,-2.261458158493042,4.765111923217773
1696508789053389800,12.582389892578124,-1.550757884979248,-2.457655668258667,4.7495574951171875
1696508789069197800,12.59819775390625,-1.0008773803710938,-2.287663698196411,3.6793973445892334
1696508789085128000,12.6141279296875,-1.0950918197631836,-1.9626611471176147,2.183950185775757
1696508789100966700,12.629966552734375,-0.6664867401123047,-1.7986555099487305,1.1732096672058105
1696508789116866300,12.6458662109375,0.553166389465332,-1.6737377643585205,0.5901429653167725
1696508789132857600,12.661857666015624,1.1050777435302734,-1.446507215499878,-0.2716895341873169
1696508789148726500,12.6777265625,0.7404918670654297,-0.9994591474533081,-1.2082993984222412
1696508789164565200,12.693565185546875,0.05994224548339844,-0.6174231767654419,-2.0385165214538574
1696508789180465000,12.70946484375,-1.205927848815918,-0.31957924365997314,-2.4365007877349854
1696508789196425700,12.72542578125,-3.018683433532715,-0.3407421112060547,-2.377767562866211
1696508789212233700,12.741233642578125,-4.468580722808838,-0.4875786304473877,-1.9553788900375366
1696508789228103000,12.75710302734375,-5.212679386138916,-0.64183509349823,-1.58075749874115
1696508789244063500,12.7730634765625,-5.894924163818359,-0.6690158843994141,-1.1077017784118652
1696508789259932700,12.7889326171875,-6.706729888916016,-0.6196737289428711,-0.7387741804122925
1696508789275832300,12.804832275390625,-6.5304765701293945,-0.40408003330230713,-0.16669118404388428
1696508789291701500,12.820701416015625,-4.923473358154297,-0.11490035057067871,0.4779691696166992
1696508789307570700,12.83657080078125,-2.5667738914489746,0.20781409740447998,0.5507339239120483
1696508789323500800,12.852500732421875,-0.7724332809448242,0.5687049627304077,0.4748934507369995
1696508789339308800,12.868308837890625,1.2947607040405273,0.8417272567749023,1.277059555053711
1696508789355208400,12.88420849609375,2.5050878524780273,1.206084132194519,2.4885506629943848
1696508789370986200,12.899986328125,2.9627609252929688,1.7618918418884277,2.5174636840820312
1696508789386824700,12.91582470703125,1.8502511978149414,2.4453277587890625,2.1099255084991455
1696508789402755000,12.931755126953124,1.2268753051757812,3.075089454650879,0.9423788785934448
1696508789418624000,12.9476240234375,2.133533477783203,3.509012460708618,-0.14142251014709473
1696508789434462700,12.963462646484375,3.653353691101074,3.618812084197998,-1.063946008682251
1696508789450240300,12.979240234375,5.575949668884277,3.1792550086975098,-1.0143134593963623
1696508789466017800,12.995017822265625,5.965258598327637,3.1256203651428223,-0.022946178913116455
1696508789481856500,13.0108564453125,4.330246925354004,2.9313786029815674,0.21872496604919434
1696508789497725700,13.0267255859375,3.9832677841186523,1.8984391689300537,0.4866771101951599
1696508789513686300,13.042686279296875,3.134387969970703,-0.28318893909454346,1.25105881690979
1696508789529494500,13.05849462890625,3.5810012817382812,-2.7958521842956543,1.4694006443023682
1696508789545302500,13.074302490234375,3.8735694885253906,-4.5059661865234375,1.7875804901123047
1696508789561354800,13.090354736328125,3.8713274002075195,-4.958408355712891,2.3490138053894043
1696508789577284900,13.106284912109375,3.2170724868774414,-4.43538236618042,1.7387219667434692
1696508789593154000,13.122154052734375,1.2147655487060547,-3.1979289054870605,-0.19287073612213135
1696508789609053700,13.1380537109375,-0.9409399032592773,-1.5886037349700928,-2.4229297637939453
1696508789624923000,13.1539228515625,-3.203561305999756,-0.18340659141540527,-4.251073837280273
1696508789640883700,13.1698837890625,-3.1081409454345703,0.3613893985748291,-4.099127769470215
1696508789656661200,13.1856611328125,-2.1568551063537598,0.06399273872375488,-2.946148633956909
1696508789672561000,13.201560791015625,-1.353734016418457,-0.31667160987854004,-1.4930734634399414
1696508789688399400,13.2173994140625,-1.0191259384155273,-0.7562074661254883,-0.2511606216430664
1696508789704207600,13.23320751953125,-1.0725421905517578,-0.8713464736938477,0.28763914108276367
1696508789720076800,13.249076904296874,-1.7675814628601074,-0.9042447805404663,0.35795485973358154
1696508789735915300,13.264915283203125,-2.7129616737365723,-0.6887457370758057,0.35430359840393066
1696508789751784400,13.280784423828125,-3.891359329223633,-0.4526786804199219,0.09801304340362549
1696508789767562000,13.29656201171875,-4.866520404815674,-0.2572627067565918,-0.13881611824035645
1696508789783400700,13.312400634765625,-5.243750095367432,-0.08301007747650146,-0.1100621223449707
1696508789799392000,13.32839208984375,-4.7259745597839355,0.03899359703063965,-0.10430383682250977
1696508789815200000,13.344199951171875,-3.8438382148742676,0.05370032787322998,0.01755046844482422
1696508789831099600,13.360099609375,-2.9902267456054688,0.0930870771408081,0.030122995376586914
1696508789846999300,13.375999267578125,-1.7412371635437012,0.12839388847351074,0.3651854991912842
1696508789862838000,13.391838134765624,-1.0883846282958984,0.37639355659484863,0.22402477264404297
1696508789878707200,13.407707275390624,-1.163888931274414,0.9148852825164795,0.25113725662231445
1696508789894545700,13.423545654296875,-0.7332935333251953,1.6220314502716064,0.4558866024017334
1696508789910445300,13.4394453125,0.3174571990966797,1.9216301441192627,0.5912387371063232
1696508789926222800,13.455222900390625,1.8554058074951172,2.0439348220825195,0.7453310489654541
1696508789942122800,13.471122802734374,2.689105987548828,2.0684292316436768,0.6389400959014893
1696508789958052900,13.487052978515624,3.961406707763672,2.5714080333709717,-0.12305235862731934
1696508789973952500,13.502952392578125,6.207301139831543,3.138775587081909,-1.1487910747528076
1696508789989882600,13.518882568359375,7.461952209472656,3.9499258995056152,-1.736374020576477
1696508790005874000,13.5348740234375,4.746086120605469,5.069768905639648,-1.3384182453155518
1696508790021743000,13.5507431640625,3.6217966079711914,3.7143423557281494,-0.8589880466461182
1696508790037612000,13.566612060546875,4.782508850097656,1.0470223426818848,1.0053932666778564
1696508790053572900,13.58257275390625,4.445940017700195,-1.6132750511169434,2.266233205795288
1696508790069442000,13.598442138671874,2.7070446014404297,-3.0217230319976807,3.570157289505005
1696508790085341700,13.614341796875,0.2744331359863281,-3.580049991607666,4.864635467529297
1696508790101180200,13.63018017578125,-0.8914937973022461,-3.609734058380127,4.785955429077148
1696508790117049300,13.64604931640625,-0.5774126052856445,-2.94921612739563,3.3836424350738525
1696508790132827000,13.661826904296875,-0.9483671188354492,-2.0097742080688477,1.6631379127502441
1696508790148757200,13.67775732421875,-2.2378287315368652,-1.234262466430664,0.707831859588623
1696508790164565200,13.693565185546875,-2.477713108062744,-0.7640433311462402,-0.30543768405914307
1696508790180495400,13.709495361328125,-1.6581363677978516,-0.4846915006637573,-1.1890636682510376
1696508790196334000,13.725333984375,-0.6322832107543945,-0.5006694793701172,-1.7274819612503052
1696508790212142000,13.74114208984375,0.09309673309326172,-0.6330455541610718,-1.3564783334732056
1696508790228011300,13.75701123046875,-0.35335350036621094,-0.7558869123458862,-0.6975380182266235
1696508790243850000,13.77285009765625,-1.1548738479614258,-0.742189884185791,-0.5214380025863647
1696508790259688400,13.7886884765625,-2.4541454315185547,-0.6673895716667175,-0.7795823812484741
1696508790275557600,13.8045576171875,-4.234807014465332,-0.5031582117080688,-1.1078426837921143
1696508790291396400,13.820396240234375,-5.485336780548096,-0.4776800870895386,-1.35209059715271
1696508790307265500,13.836265625,-5.5854692459106445,-0.376395583152771,-1.304802417755127
1696508790323073500,13.852073486328125,-5.474682807922363,-0.2636277675628662,-0.7687653303146362
1696508790338912300,13.867912353515624,-5.380353927612305,-0.048000216484069824,0.0018451213836669922
1696508790354781400,13.883781494140624,-5.77786922454834,0.1856241226196289,0.6622409820556641
1696508790370589400,13.89958935546875,-4.7739739418029785,0.7067708969116211,0.8386855125427246
1696508790386489000,13.915489013671875,-2.001514434814453,1.1900901794433594,0.8354935646057129
1696508790402297000,13.931297119140625,1.0907344818115234,1.4127435684204102,1.2499381303787231
1696508790418135800,13.9471357421875,3.0742692947387695,1.6249438524246216,2.3848729133605957
1696508790434005000,13.9630048828125,3.51668643951416,1.8439743518829346,2.863990306854248
1696508790449843500,13.978843505859375,3.275430679321289,2.1561174392700195,2.5910964012145996
1696508790465682200,13.99468212890625,3.2547836303710938,2.3726119995117188,2.0795705318450928
1696508790481490400,14.010490478515624,3.73795223236084,2.578745126724243,1.300238847732544
1696508790497390000,14.02639013671875,4.679079055786133,2.6030781269073486,0.36062705516815186
1696508790513228500,14.042228515625,6.503446578979492,2.4552712440490723,-0.5023316740989685
1696508790529036800,14.058036865234374,7.244025230407715,2.845282554626465,-0.3172376751899719
1696508790544936400,14.0739365234375,4.197796821594238,3.2787060737609863,-0.7854762077331543
1696508790560775000,14.08977490234375,1.8157892227172852,2.511181592941284,-1.041905403137207
1696508790576613600,14.105613525390625,1.0300302505493164,0.8415716886520386,-0.17158961296081543
1696508790592452000,14.1214521484375,0.37700462341308594,-1.4669151306152344,0.4070490598678589
1696508790608260400,14.13726025390625,1.6485872268676758,-3.1505064964294434,0.5581204891204834
1696508790624129500,14.153129638671874,2.2659854888916016,-4.343450546264648,1.2941840887069702
1696508790639937500,14.1689375,2.3298768997192383,-4.702717304229736,2.116194486618042
1696508790655776300,14.1847763671875,1.868234634399414,-3.834676742553711,1.493722677230835
1696508790671706400,14.200706298828125,0.5167760848999023,-2.382305145263672,-0.7586669921875
1696508790687514400,14.216514404296875,-0.4824533462524414,-0.4578627347946167,-3.866690158843994
1696508790703444700,14.23244482421875,-1.8056583404541016,0.8651111125946045,-5.696225643157959
1696508790719283200,14.248283203125,-0.5686197280883789,0.8000273704528809,-4.539989948272705
1696508790735122000,14.264121826171875,0.21954059600830078,0.0077648162841796875,-2.2043416500091553
1696508790750960600,14.279960693359374,-0.9565372467041016,-0.5358108282089233,-0.411138653755188
1696508790766768600,14.2957685546875,-1.8921465873718262,-0.7578794956207275,0.5241976976394653
1696508790782668300,14.311668212890625,-2.7547502517700195,-0.7765300869941711,0.6087503433227539
1696508790798415400,14.327415283203125,-3.8696837425231934,-0.5804557800292969,0.4749070405960083
1696508790814254000,14.343254150390624,-4.844692707061768,-0.463919997215271,0.06849312782287598
1696508790830153700,14.35915380859375,-4.94849157333374,-0.3422142267227173,-0.44916749000549316
1696508790846053400,14.375053466796874,-4.431543350219727,-0.23027443885803223,-0.5438746213912964
1696508790861891800,14.390891845703125,-3.666010856628418,-0.10049045085906982,-0.3074740171432495
1696508790877730600,14.40673046875,-3.491422176361084,0.03264760971069336,0.11884427070617676
1696508790893538600,14.42253857421875,-3.574347972869873,0.4428452253341675,0.2667379379272461
1696508790909469000,14.438468994140624,-3.0827770233154297,0.7928543090820312,0.08594799041748047
1696508790925277000,14.45427685546875,-1.7959747314453125,1.049923300743103,-0.1615753173828125
1696508790941146000,14.47014599609375,-0.06278133392333984,1.2810664176940918,-0.20973682403564453
1696508790956954000,14.4859541015625,0.8720188140869141,1.5911903381347656,-0.05271148681640625
1696508790972945400,14.5019453125,1.7344465255737305,1.9567196369171143,0.3958315849304199
1696508790988845000,14.517844970703125,1.7339897155761719,2.228701591491699,0.49033141136169434
1696508791004622600,14.53362255859375,1.2088842391967773,2.540300130844116,-0.04381608963012695
1696508791020552700,14.549552734375,1.9070167541503906,2.565011739730835,-0.6005626916885376
1696508791036330500,14.56533056640625,4.96028995513916,2.741863250732422,-1.8450576066970825
1696508791052260600,14.581260498046875,6.89603328704834,3.399325370788574,-2.6950571537017822
1696508791068160300,14.59716015625,3.789645195007324,4.665990829467773,-2.956915855407715
1696508791084120800,14.613120849609375,1.7701644897460938,4.217465400695801,-2.7812938690185547
1696508791099990000,14.628989990234375,1.8819665908813477,1.7935230731964111,-0.3186194896697998
1696508791115828700,14.644828857421874,1.3599205017089844,-1.2009347677230835,2.5396533012390137
1696508791131789300,14.660789306640625,2.5182056427001953,-3.2969844341278076,4.804306983947754
1696508791147658500,14.676658447265625,2.961644172668457,-4.651443004608154,6.773063659667969
1696508791163558100,14.69255810546875,1.8808488845825195,-4.789892196655273,7.060452461242676
1696508791179457800,14.708457763671875,0.36434173583984375,-3.9699926376342773,6.158688545227051
1696508791195327000,14.724326904296875,-0.48490142822265625,-2.8161497116088867,5.143620491027832
1696508791211104500,14.7401044921875,-0.569157600402832,-1.473049283027649,3.5783231258392334
1696508791227004200,14.756004150390625,-0.8201274871826172,-0.510068416595459,1.2607471942901611
1696508791242843000,14.7718427734375,-0.9342880249023438,-0.0002409219741821289,-1.0873961448669434
1696508791258742500,14.787742431640625,-1.3663558959960938,0.05656301975250244,-2.0931055545806885
1696508791274520000,14.80352001953125,-1.671593189239502,-0.047124385833740234,-1.986351728439331
1696508791290389200,14.81938916015625,-0.9733524322509766,-0.23705756664276123,-1.9989445209503174
1696508791306258400,14.835258544921874,-0.9372329711914062,-0.38216739892959595,-2.053596019744873
1696508791322066400,14.85106640625,-2.479437828063965,-0.47548210620880127,-2.4718384742736816
1696508791337905200,14.8669052734375,-3.7690863609313965,-0.42188769578933716,-2.7982022762298584
1696508791353743600,14.88274365234375,-4.556076526641846,-0.3182777762413025,-2.7511026859283447
1696508791369552000,14.8985517578125,-5.61015510559082,-0.3651166558265686,-2.289422035217285
1696508791385421000,14.914421142578124,-6.616064071655273,-0.2993983030319214,-1.768868088722229
1696508791401198600,14.930198486328125,-6.1939191818237305,-0.1752995252609253,-1.1928991079330444
1696508791417037000,14.946037109375,-4.9594550132751465,-0.08389246463775635,-0.6245784759521484
1696508791432845300,14.96184521484375,-2.5621719360351562,-0.02940201759338379,-0.5245339870452881
1696508791448684000,14.97768408203125,0.08468341827392578,0.2088778018951416,-0.06774044036865234
1696508791464553000,14.993552978515625,1.3219480514526367,0.41464412212371826,1.477712869644165
1696508791480422100,15.009422119140625,2.2840328216552734,0.8925029039382935,2.4613399505615234
1696508791496291300,15.025291259765625,3.788680076599121,1.5740766525268555,2.3206939697265625
1696508791512068900,15.04106884765625,3.8282012939453125,1.9150304794311523,1.6290068626403809
1696508791527846400,15.056846435546875,4.005449295043945,2.011465549468994,0.8671114444732666
1696508791543685000,15.07268505859375,4.722246170043945,2.0248799324035645,-0.3463134765625
1696508791559523800,15.08852392578125,5.266600608825684,1.956939935684204,-1.6716444492340088
1696508791575454000,15.104453857421875,5.8584136962890625,1.9426053762435913,-1.1289405822753906
1696508791591353600,15.120353515625,4.250933647155762,2.073394536972046,-0.40870070457458496
1696508791607283700,15.13628369140625,1.3087329864501953,1.4808157682418823,-0.0483098030090332
1696508791623213800,15.1522138671875,0.38703441619873047,0.269832968711853,0.6325161457061768
1696508791639144200,15.168144287109374,0.6429414749145508,-1.770196557044983,0.24044466018676758
1696508791655135200,15.18413525390625,3.5527381896972656,-4.011636734008789,0.4848473072052002
1696508791671035000,15.200034912109375,5.277263641357422,-5.399937152862549,1.9310705661773682
1696508791686904000,15.215904052734375,6.327308654785156,-5.049030780792236,2.6994504928588867
1696508791702895400,15.231895263671875,4.772950172424316,-3.834911584854126,0.7628426551818848
1696508791718673000,15.2476728515625,1.4458036422729492,-2.4418792724609375,-1.8005256652832031
1696508791734633700,15.2636337890625,-1.3911323547363281,-0.9849826693534851,-3.600783348083496
1696508791750411300,15.279411376953124,-1.9061875343322754,-0.2462141513824463,-3.596780776977539
1696508791766311000,15.295310791015625,-0.9041528701782227,-0.2789137363433838,-2.9821629524230957
1696508791782241000,15.311240966796875,-0.52740478515625,-0.4169728755950928,-1.8425883054733276
1696508791798110200,15.327110107421875,-1.2930850982666016,-0.7049683928489685,-0.9522899389266968
1696508791814009900,15.343009765625,-2.318948268890381,-0.9420002698898315,-0.35557103157043457
1696508791829879000,15.358879150390624,-3.2110743522644043,-0.9337234497070312,-0.19457197189331055
1696508791845748200,15.374748291015624,-3.8181400299072266,-0.7418463826179504,-0.37328553199768066
1696508791861617200,15.3906171875,-4.665989398956299,-0.5363143682479858,-0.4423367977142334
1696508791877425400,15.40642529296875,-5.228724002838135,-0.23752248287200928,-0.6406471729278564
1696508791893325000,15.422324951171875,-5.591383934020996,-0.14881682395935059,-0.4458775520324707
1696508791909133000,15.438133056640625,-4.780291557312012,-0.21331894397735596,-0.16819214820861816
1696508791924971800,15.4539716796875,-3.5044612884521484,-0.4068233370780945,0.21113801002502441
1696508791940841000,15.469841064453124,-2.4415268898010254,-0.4343699812889099,0.5950350761413574
1696508791956679400,15.485679443359375,-1.4684877395629883,-0.16243910789489746,1.2923245429992676
1696508791972609800,15.50160986328125,-1.114619255065918,0.5353542566299438,1.4825198650360107
1696508791988387300,15.51738720703125,-1.3816518783569336,1.4528634548187256,0.896392822265625
1696508792004195300,15.5331953125,-1.482285499572754,2.299344778060913,0.26729893684387207
1696508792020064500,15.549064453125,-0.17937278747558594,2.7633724212646484,0.19457459449768066
1696508792035872500,15.56487255859375,1.675577163696289,2.7473716735839844,0.34960007667541504
1696508792051772400,15.5807724609375,1.8563671112060547,2.20059871673584,1.2290799617767334
1696508792067611000,15.59661083984375,2.1361312866210938,1.7935224771499634,2.1300461292266846
1696508792083419100,15.612419189453124,5.487908363342285,1.7079249620437622,1.851715326309204
1696508792099318800,15.62831884765625,6.810422897338867,2.6649866104125977,0.5883288383483887
1696508792115126800,15.644126708984375,4.837974548339844,4.002472877502441,-0.5467121601104736
1696508792131026400,15.6600263671875,3.6686573028564453,3.961200714111328,-0.45391035079956055
1696508792146956500,15.67595654296875,3.356698989868164,2.372232675552368,1.1084940433502197
1696508792162764800,15.691764892578124,2.3214025497436523,0.1323155164718628,3.004716396331787
1696508792178664400,15.70766455078125,1.3277158737182617,-2.3923096656799316,3.81954288482666
1696508792194503000,15.7235029296875,1.4448003768920898,-3.4688591957092285,3.5678837299346924
1696508792210433300,15.739433349609374,1.891622543334961,-3.6855297088623047,2.492252826690674
1696508792226333000,15.7553330078125,0.9251470565795898,-3.484321117401123,1.768533706665039
1696508792242141000,15.771140869140625,-0.8303775787353516,-2.664092540740967,0.6197643280029297
1696508792258132200,15.78713232421875,-2.478046417236328,-1.4457228183746338,-0.8036184310913086
1696508792273940200,15.802940185546875,-3.507899284362793,-0.15972435474395752,-2.915903329849243
1696508792289839900,15.81883984375,-2.470397472381592,0.41599738597869873,-4.312185764312744
1696508792305709000,15.834708984375,0.2990121841430664,0.453529953956604,-3.5454556941986084
1696508792321608700,15.850608642578125,1.3376541137695312,0.17164742946624756,-1.489993691444397
1696508792337538800,15.866538818359375,0.46107006072998047,-0.013537287712097168,0.6583383083343506
1696508792353377500,15.88237744140625,-1.1082310676574707,0.03799796104431152,1.660022497177124
1696508792369277200,15.898277099609375,-2.7994446754455566,0.13724017143249512,1.5182397365570068
1696508792385116000,15.914115966796874,-3.9632344245910645,0.16660284996032715,0.7770569324493408
1696508792400954400,15.929954345703125,-4.833103179931641,0.06073331832885742,0.2873368263244629
1696508792416854000,15.94585400390625,-5.387595176696777,-0.1352214813232422,0.09975528717041016
1696508792432662300,15.961662353515624,-5.2205376625061035,-0.40732645988464355,0.40393853187561035
1696508792448500700,15.977500732421875,-4.318843364715576,-0.556740403175354,0.6382021903991699
1696508792464309000,15.99330908203125,-2.8155956268310547,-0.3673762083053589,0.6592285633087158
1696508792480117000,16.009116943359373,-1.1835894584655762,-0.004166245460510254,0.5309622287750244
1696508792496016600,16.0250166015625,0.12697696685791016,0.4381009340286255,0.5636589527130127
1696508792511825000,16.040824951171874,1.1810455322265625,1.0040321350097656,1.073286771774292
1696508792527724500,16.056724609375,0.8905754089355469,1.628844976425171,0.795184850692749
1696508792543532500,16.072532470703123,0.7078695297241211,1.9622347354888916,0.7735738754272461
1696508792559401700,16.088401611328123,0.8265886306762695,1.594382882118225,1.0704925060272217
1696508792575392800,16.104392822265623,1.5411348342895508,1.15031898021698,1.3612339496612549
1696508792591231500,16.1202314453125,3.080134391784668,0.6701531410217285,1.0414385795593262
1696508792607100700,16.1361005859375,4.625192642211914,0.49912941455841064,0.5310952663421631
1696508792622969900,16.151969970703124,2.787111282348633,1.6294384002685547,1.1230947971343994
1696508792638900000,16.16789990234375,-0.1402416229248047,2.0651254653930664,0.9680173397064209
1696508792654769200,16.18376904296875,1.7400074005126953,0.9030684232711792,1.291806697845459
1696508792670607600,16.199607666015623,2.987049102783203,-0.9301959276199341,2.36448073387146
1696508792686476800,16.215476806640623,4.83741569519043,-2.808195114135742,2.1179676055908203
1696508792702315500,16.2313154296875,6.061671257019043,-3.962167739868164,1.5794563293457031
1696508792718154200,16.247154296875,6.546695709228516,-4.094489097595215,1.1629714965820312
1696508792733992700,16.26299267578125,5.051916122436523,-3.0558524131774902,-1.0744128227233887
1696508792749922800,16.2789228515625,1.4139509201049805,-1.2547314167022705,-4.083829879760742
1696508792765822500,16.294822509765623,-2.1550698280334473,0.5414310693740845,-6.70521354675293
1696508792781722000,16.31072216796875,-3.8034486770629883,1.408955693244934,-7.116274833679199
1696508792797560800,16.326560791015623,-4.012156963348389,1.0809998512268066,-5.745672225952148
1696508792813491000,16.342490966796873,-2.049459934234619,-0.07202625274658203,-3.7354025840759277
1696508792829390600,16.358390625,0.690333366394043,-1.1412042379379272,-1.2378426790237427
1696508792845321000,16.374321044921874,2.3062667846679688,-1.6629579067230225,0.9691371917724609
1696508792861220600,16.390220703125,1.9015483856201172,-1.5107481479644775,2.5653445720672607
1696508792876998100,16.405998046875,0.5474100112915039,-1.0048401355743408,2.2877068519592285
1696508792892928300,16.42192822265625,-0.8962774276733398,-0.3420940637588501,1.062018632888794
1696508792908767000,16.43776708984375,-2.6096973419189453,0.042469024658203125,0.45398926734924316
1696508792924727600,16.4537275390625,-4.391976833343506,-0.00344085693359375,-0.5837433338165283
1696508792940627200,16.469627197265623,-4.956809997558594,-0.07644164562225342,-1.3728694915771484
1696508792956496400,16.485496337890623,-5.080212593078613,-0.1622382402420044,-1.8573970794677734
1696508792972426500,16.501426513671873,-5.277870178222656,-0.1757739782333374,-1.9122482538223267
1696508792988204300,16.517204345703124,-5.19635534286499,-0.047167062759399414,-1.5482126474380493
1696508793004134400,16.533134521484374,-4.276605606079102,0.3435020446777344,-0.8147594928741455
1696508793019881500,16.548881591796874,-2.7743568420410156,0.9384090900421143,0.16257905960083008
1696508793035720000,16.564719970703123,-1.0771560668945312,1.569676399230957,0.5659823417663574
1696508793051589000,16.580589111328123,0.2934255599975586,2.165489673614502,0.20186638832092285
1696508793067397400,16.5963974609375,0.6119222640991211,2.5322611331939697,-0.2698354721069336
1696508793083266300,16.612266357421873,0.27678775787353516,2.517083168029785,0.06243753433227539
1696508793099074600,16.628074462890623,0.7864551544189453,2.160491466522217,0.28095579147338867
1696508793114882600,16.643882568359373,2.6559877395629883,1.8151805400848389,0.28422093391418457
1696508793130721300,16.65972119140625,6.494007110595703,1.6859626770019531,-0.1032099723815918
1696508793146590500,16.675590576171874,8.610823631286621,2.3403525352478027,-0.7248549461364746
1696508793162490000,16.691489990234373,6.573386192321777,3.6615242958068848,-1.5876917839050293
1696508793178237200,16.7072373046875,2.733475685119629,3.8631491661071777,-1.446326732635498
1696508793194075600,16.72307568359375,1.4371261596679688,2.200261116027832,0.35964441299438477
1696508793210006000,16.739006103515624,1.5905141830444336,-1.016541838645935,3.367154121398926
1696508793225814000,16.75481396484375,3.4789600372314453,-3.49375581741333,5.186504364013672
1696508793241744100,16.770744140625,4.707510948181152,-4.770295143127441,5.644200325012207
1696508793257582800,16.786582763671873,4.1724395751953125,-4.537726402282715,5.12916374206543
1696508793273452000,16.8024521484375,0.22373485565185547,-2.9085745811462402,2.615189552307129
1696508793289382100,16.818382080078123,-2.9839048385620117,-1.1130248308181763,0.15332555770874023
1696508793305190100,16.834190185546873,-3.7512216567993164,0.5300858020782471,-2.4823198318481445
1696508793321089800,16.85008984375,-1.9400391578674316,0.9902276992797852,-4.177737712860107
1696508793336928500,16.865928466796873,0.4279813766479492,0.5330595970153809,-4.010868072509766
1696508793352858600,16.881858642578123,2.025132179260254,-0.44128847122192383,-2.203173875808716
1696508793368789000,16.8977890625,1.1530561447143555,-1.0202560424804688,0.32126903533935547
1696508793384658000,16.913657958984373,-0.8181095123291016,-1.2337946891784668,1.9655206203460693
1696508793400557600,16.9295576171875,-2.829662799835205,-1.0774757862091064,2.349433422088623
1696508793416365800,16.94536572265625,-4.6523356437683105,-0.7333052158355713,1.7167854309082031
1696508793432296000,16.9612958984375,-6.170947074890137,-0.6244539022445679,0.6157324314117432
1696508793448165000,16.9771650390625,-7.0333662033081055,-0.5411293506622314,-0.19936299324035645
1696508793464095200,16.99309521484375,-6.690882205963135,-0.4292351007461548,-0.5375516414642334
1696508793479995000,17.008994873046873,-6.103963851928711,-0.24739575386047363,-0.6108338832855225
1696508793495894500,17.02489453125,-5.133578777313232,0.14435958862304688,-0.574904203414917
1696508793511763700,17.040763671875,-3.3355660438537598,0.5927430391311646,-0.40494799613952637
1696508793527663400,17.056663330078123,-1.5150160789489746,0.9214135408401489,-0.36145973205566406
1696508793543624200,17.072624267578124,0.6471118927001953,0.8168444633483887,0.5265085697174072
1696508793559493000,17.0884931640625,2.4710168838500977,0.7309117317199707,2.164062023162842
1696508793575362300,17.1043623046875,2.724673271179199,1.043958067893982,3.616239309310913
1696508793591201000,17.120200927734373,1.378488540649414,1.6300103664398193,4.227160930633545
1696508793607039700,17.136039794921874,0.7497014999389648,2.009042739868164,3.7518765926361084
1696508793622847700,17.15184765625,0.5486593246459961,2.0485382080078125,3.023745536804199
1696508793638686500,17.1676865234375,1.7000398635864258,1.8752597570419312,1.725008487701416
1696508793654555400,17.183555419921873,4.084181785583496,1.7205690145492554,0.7036235332489014
1696508793670333200,17.199333251953124,5.050134658813477,2.0600037574768066,0.4709608554840088
1696508793686202000,17.2152021484375,2.401632308959961,2.4986348152160645,0.05813956260681152
1696508793701980000,17.23097998046875,2.0195064544677734,1.430415153503418,0.29842233657836914
1696508793717879600,17.246879638671874,2.3156681060791016,-0.5671758651733398,1.3920793533325195
1696508793733657000,17.262656982421873,2.9381237030029297,-2.9022505283355713,2.1207339763641357
1696508793749526300,17.2785263671875,5.0805158615112305,-4.5169267654418945,1.4272370338439941
1696508793765426000,17.294426025390624,5.895780563354492,-5.035560131072998,1.1154580116271973
1696508793781295000,17.310295166015624,5.205622673034668,-4.295982360839844,-1.1799805164337158
1696508793797164000,17.3261640625,3.1801319122314453,-2.3003954887390137,-4.463526725769043
1696508793812972300,17.34197216796875,0.3880167007446289,-0.49539828300476074,-7.67172908782959
1696508793828780300,17.3577802734375,-2.0695576667785645,0.6221704483032227,-8.477131843566895
1696508793844691500,17.37369140625,-2.2602505683898926,0.6151297092437744,-6.75868034362793
1696508793860499500,17.38949951171875,-1.2070388793945312,-0.19188058376312256,-3.7429676055908203
1696508793876368600,17.40536865234375,-0.20024776458740234,-1.0597550868988037,-1.192366600036621
1696508793892207000,17.42120703125,1.4906730651855469,-1.7393739223480225,1.1439597606658936
1696508793908045800,17.4370458984375,1.8586359024047852,-1.7517098188400269,2.31506085395813
1696508793923945500,17.452945556640625,0.33713626861572266,-1.2408361434936523,2.2937204837799072
1696508793939784200,17.4687841796875,-1.1852140426635742,-0.6164259910583496,1.469527244567871
1696508793955683800,17.484683837890625,-2.4518260955810547,-0.13116121292114258,0.5144808292388916
1696508793971614000,17.500614013671875,-3.9385132789611816,0.1332937479019165,-0.4377148151397705
1696508793987483100,17.516483154296875,-5.234278678894043,0.1300032138824463,-1.0380579233169556
1696508794003443700,17.532443603515624,-5.555638313293457,-0.15631985664367676,-1.2311091423034668
1696508794019313000,17.54831298828125,-5.091028690338135,-0.38349175453186035,-1.2505351305007935
1696508794035212500,17.564212646484375,-4.5892462730407715,-0.41082632541656494,-1.1731370687484741
1696508794051112200,17.5801123046875,-4.016729354858398,-0.4167670011520386,-0.857125997543335
1696508794067011800,17.59601171875,-3.1382827758789062,-0.15774226188659668,-0.05550265312194824
1696508794083003100,17.612003173828125,-2.682314395904541,0.5891478061676025,0.8897547721862793
1696508794098841900,17.627841796875,-2.895052433013916,1.4449567794799805,1.0534567832946777
1696508794114741500,17.643741455078125,-2.406029224395752,2.2701847553253174,0.6494877338409424
1696508794130519000,17.65951904296875,-1.0410270690917969,2.924412965774536,-0.3366975784301758
1696508794146510000,17.675510009765624,0.4476308822631836,2.896726131439209,-0.6796298027038574
1696508794162348800,17.691348876953125,3.7789173126220703,2.345231533050537,-0.27288246154785156
1696508794178218000,17.707218017578125,7.133941650390625,1.779026985168457,0.5193049907684326
1696508794194117600,17.72311767578125,9.551827430725098,2.391996145248413,1.0517845153808594
1696508794209925600,17.738925537109374,6.448245048522949,3.8294317722320557,0.6870067119598389
1696508794225764400,17.754764404296875,3.0169591903686523,3.8612172603607178,1.4388916492462158
1696508794241664000,17.7706640625,3.5907154083251953,1.7658531665802002,2.230766534805298
1696508794257411000,17.7864111328125,5.5509233474731445,-1.6798672676086426,3.180307626724243
1696508794273341200,17.802341064453124,6.465827941894531,-3.9765257835388184,4.252073287963867
1696508794289149400,17.8181494140625,5.404392242431641,-4.839926242828369,4.635199546813965
1696508794304927000,17.833927001953125,3.548006057739258,-4.127640247344971,3.3728184700012207
1696508794320857000,17.849857177734375,-0.3859539031982422,-2.4824259281158447,1.2042138576507568
1696508794336726300,17.865726318359375,-4.9995317459106445,-0.4070478677749634,-1.5567152500152588
1696508794352626000,17.8816259765625,-6.597850322723389,0.9099061489105225,-3.0278146266937256
1696508794368434000,17.897433837890624,-5.469788551330566,1.3127305507659912,-4.064108371734619
1696508794384242200,17.9132421875,-3.3932976722717285,0.47778844833374023,-3.5417861938476562
1696508794400172300,17.92917236328125,-0.8502092361450195,-0.8957730531692505,-1.3740057945251465
1696508794415949800,17.94494970703125,0.8066940307617188,-1.726610779762268,0.601560115814209
1696508794431849500,17.960849365234374,1.1045646667480469,-1.8277109861373901,2.298645257949829
1696508794447657700,17.97665771484375,-0.49582672119140625,-1.5983400344848633,2.5872998237609863
1696508794463527000,17.99252685546875,-1.8405795097351074,-0.9772314429283142,1.8537437915802002
1696508794479395800,18.008395751953124,-2.6804189682006836,-0.5752473473548889,0.7551426887512207
1696508794495234600,18.024234619140625,-3.6168723106384277,-0.3883390426635742,-0.07155776023864746
1696508794511164700,18.04016455078125,-5.147533416748047,-0.23863637447357178,-0.5715267658233643
1696508794526942200,18.055942138671874,-5.934107780456543,0.05787837505340576,-0.2962954044342041
1696508794542811400,18.071811279296874,-5.532437324523926,0.43448710441589355,-0.06500029563903809
1696508794558680600,18.0876806640625,-4.258136749267578,0.6425087451934814,0.2178966999053955
1696508794574519300,18.103519287109375,-1.9862933158874512,0.7389450073242188,0.6396756172180176
1696508794590419000,18.1194189453125,0.41827964782714844,0.7077382802963257,1.4849505424499512
1696508794606410000,18.135409912109374,1.6073131561279297,0.8107490539550781,2.276568651199341
1696508794622279200,18.151279052734374,1.4818754196166992,0.944611668586731,3.119776725769043
1696508794638148400,18.1671484375,1.1512441635131836,1.0830409526824951,3.746312379837036
1696508794653956600,18.18295654296875,0.4998350143432617,1.312515377998352,3.4026119709014893
1696508794669917200,18.198917236328125,-0.38116931915283203,1.699995517730713,2.3891851902008057
1696508794685816800,18.21481689453125,-0.167816162109375,2.1990747451782227,0.9011013507843018
1696508794701655600,18.230655517578125,0.8849639892578125,2.460235834121704,-0.2519569396972656
1696508794717677300,18.24667724609375,2.684354782104492,2.6001343727111816,0.13743090629577637
1696508794733515800,18.262515869140625,2.5477609634399414,2.650780439376831,0.3285379409790039
1696508794749415400,18.27841552734375,3.0651588439941406,2.6100120544433594,-0.4681497812271118
1696508794765284600,18.29428466796875,4.429269790649414,1.5651980638504028,0.17035341262817383
1696508794781184300,18.310184326171875,4.908177375793457,-0.6206903457641602,1.617241382598877
1696508794797114400,18.3261142578125,5.244687080383301,-2.8382225036621094,3.1195337772369385
1696508794812922600,18.341922607421875,4.587983131408691,-4.25106143951416,3.5749120712280273
1696508794828791800,18.357791748046875,3.307422637939453,-4.787154197692871,3.2145776748657227
1696508794844660700,18.37366064453125,2.652482032775879,-4.460543632507324,1.7125322818756104
1696508794860469000,18.389468994140625,1.7381839752197266,-3.3027796745300293,-0.8653329610824585
1696508794876368600,18.40536865234375,0.7958526611328125,-1.3735727071762085,-4.086167335510254
1696508794892146200,18.421146240234375,0.2193889617919922,0.11351597309112549,-6.318406105041504
1696508794908015400,18.437015380859375,-0.12179946899414062,0.5745077133178711,-6.070346355438232
1696508794923823400,18.4528232421875,-0.49610328674316406,0.09591424465179443,-4.048081398010254
1696508794939631600,18.468631591796875,-0.23346519470214844,-0.5754561424255371,-2.119279384613037
1696508794955531300,18.48453125,0.020715713500976562,-1.2048369646072388,0.07288289070129395
1696508794971339300,18.50033935546875,-0.23208332061767578,-1.5866748094558716,1.289259672164917
1696508794987269400,18.516269287109374,-1.7455353736877441,-1.4071482419967651,1.0996880531311035
1696508795003016400,18.532016357421874,-3.5248513221740723,-1.0786486864089966,0.3290526866912842
1696508795018824700,18.54782470703125,-4.975368499755859,-0.8502163290977478,0.03464794158935547
1696508795034724400,18.563724365234375,-5.683272838592529,-0.8588482141494751,-0.03954625129699707
1696508795050562800,18.579562744140624,-5.477804183959961,-0.8183437585830688,-0.35185718536376953
1696508795066432000,18.595431884765624,-5.585714817047119,-0.9215279817581177,-0.621098518371582
1696508795082240300,18.611240234375,-5.515273094177246,-0.8336102962493896,-0.9021821022033691
1696508795098109400,18.627109375,-4.256931781768799,-0.5921964645385742,-1.1010210514068604
1696508795113948000,18.642947998046875,-2.4445419311523438,-0.0402224063873291,-1.5318975448608398
1696508795129695000,18.658695068359375,-0.8373661041259766,0.7924470901489258,-1.9979686737060547
1696508795145564200,18.674564208984375,0.4563789367675781,1.623448371887207,-2.50150465965271
1696508795161403000,18.69040283203125,1.6714458465576172,2.2224555015563965,-2.5678019523620605
1696508795177241300,18.706241455078125,2.350057601928711,2.305960178375244,-1.5013707876205444
1696508795193110500,18.722110595703125,2.2780323028564453,2.2847814559936523,-0.3051338195800781
1696508795209010200,18.73801025390625,2.025636672973633,2.267526626586914,0.7987453937530518
1696508795224909800,18.753909912109375,1.9898223876953125,2.260155439376831,1.2171506881713867
1696508795240809500,18.7698095703125,3.0631208419799805,2.602998971939087,0.7074577808380127
1696508795256617700,18.78561767578125,4.868131637573242,3.179060459136963,-0.3215789794921875
1696508795272517400,18.801517333984375,5.0980119705200195,3.6941065788269043,-0.7751631736755371
1696508795288355800,18.81735595703125,4.464250564575195,4.385735988616943,-0.5432529449462891
1696508795304316700,18.833316650390625,4.552655220031738,3.681252956390381,-0.7112586498260498
1696508795320216300,18.84921630859375,3.811354637145996,1.4412479400634766,1.6090786457061768
1696508795336085500,18.86508544921875,2.8989200592041016,-1.4424924850463867,4.718808650970459
1696508795351985200,18.880985107421875,2.178264617919922,-3.473038673400879,6.553180694580078
1696508795367823600,18.89682373046875,0.28058815002441406,-4.143832683563232,6.102785587310791
1696508795383815000,18.91281494140625,-2.1567564010620117,-3.7338907718658447,4.75576114654541
1696508795399653600,18.928653564453125,-3.6296768188476562,-2.8078672885894775,3.1284899711608887
1696508795415553300,18.94455322265625,-4.727674961090088,-1.6949034929275513,0.8969786167144775
1696508795431544300,18.96054443359375,-4.134250640869141,-0.31380772590637207,-1.3462159633636475
1696508795447383000,18.976383056640625,-2.194641590118408,-0.02041912078857422,-2.4505138397216797
1696508795463313200,18.992313232421875,1.7611141204833984,-0.5154292583465576,-2.3234541416168213
1696508795479121400,19.008121337890625,3.092235565185547,-1.139621615409851,-1.4324800968170166
1696508795494959900,19.0239599609375,1.8116607666015625,-1.4349381923675537,-0.3261682987213135
1696508795510798600,19.039798583984375,-0.31771278381347656,-1.6028704643249512,0.16027474403381348
1696508795526606600,19.055606689453125,-1.3786163330078125,-1.4804835319519043,-0.17657065391540527
1696508795542628400,19.07162841796875,-2.4899144172668457,-1.3615155220031738,-0.8277132511138916
1696508795558406000,19.087406005859375,-3.377556800842285,-1.1394236087799072,-1.4746394157409668
1696508795574275000,19.103275146484375,-3.7049436569213867,-0.9428952932357788,-2.1399784088134766
1696508795590113800,19.11911376953125,-3.9935965538024902,-0.7045116424560547,-2.5430142879486084
1696508795605860900,19.13486083984375,-4.4313859939575195,-0.31881046295166016,-2.976356267929077
1696508795621730000,19.15072998046875,-4.372351169586182,0.08824634552001953,-3.0455117225646973
1696508795637568500,19.166568603515625,-3.55155086517334,0.38795459270477295,-2.3828279972076416
1696508795653346000,19.182345947265624,-2.499833106994629,0.5655908584594727,-1.6309915781021118
1696508795669307000,19.198306884765625,-1.472517967224121,0.7461475133895874,-0.4842197895050049
1696508795685115000,19.214114990234375,0.32325172424316406,0.7612593173980713,0.4130098819732666
1696508795701045000,19.230044921875,2.417313575744629,0.8487042188644409,1.4243452548980713
1696508795716853200,19.245853271484375,2.50791072845459,1.472319483757019,1.4917266368865967
1696508795732691700,19.261691650390624,1.3919124603271484,2.2114644050598145,0.8795528411865234
1696508795748530400,19.277530517578125,0.7819242477416992,2.9226181507110596,0.11387062072753906
1696508795764491300,19.2934912109375,1.2396202087402344,3.298139810562134,-0.724801778793335
1696508795780391000,19.309390869140625,4.077641487121582,2.8612358570098877,-0.9506610631942749
1696508795796321000,19.325321044921875,6.662026405334473,1.939470648765564,0.02551722526550293
1696508795812190200,19.341190185546875,7.206713676452637,1.7830396890640259,0.7510545253753662
1696508795828089900,19.35708984375,6.21683406829834,2.570807456970215,-0.394970178604126
1696508795843928300,19.37292822265625,4.4167890548706055,2.3339967727661133,-1.860910415649414
1696508795859919600,19.388919677734375,2.4425907135009766,0.9571809768676758,-0.48779773712158203
1696508795875819300,19.4048193359375,1.384831428527832,-1.5949933528900146,1.7949340343475342
1696508795891658000,19.420657958984375,2.6773462295532227,-3.8419947624206543,3.009655237197876
1696508795907588000,19.436588134765625,4.588560104370117,-5.4821038246154785,3.7104179859161377
1696508795923426800,19.4524267578125,3.6996288299560547,-5.909310340881348,4.706645488739014
1696508795939417900,19.46841796875,0.6206426620483398,-5.219895362854004,3.7391915321350098
1696508795955287000,19.484287109375,-0.9926252365112305,-3.5006003379821777,1.3305385112762451
1696508795971156200,19.50015625,-2.8428430557250977,-0.8360364437103271,-2.9657111167907715
1696508795987147500,19.5161474609375,-3.3041443824768066,1.163649082183838,-6.134763717651367
1696508796002955500,19.53195556640625,-2.000209331512451,1.114936351776123,-5.159911155700684
1696508796018916000,19.547916015625,-1.2008438110351562,0.1595444679260254,-2.4443185329437256
1696508796034694000,19.56369384765625,-0.4658060073852539,-0.9614955186843872,0.48584699630737305
1696508796050532400,19.579532470703125,-0.21111679077148438,-1.4611873626708984,2.291261672973633
1696508796066432000,19.595431884765624,-0.9802465438842773,-1.4220688343048096,2.7792115211486816
1696508796082209500,19.61120947265625,-2.466121196746826,-1.008499026298523,1.9125466346740723
1696508796098078700,19.62707861328125,-4.065484523773193,-0.5886152982711792,0.9029958248138428
1696508796113887000,19.642886962890625,-4.586301326751709,-0.4350259304046631,0.5705366134643555
1696508796129725400,19.658725341796874,-4.726851463317871,-0.3248147964477539,0.4745676517486572
1696508796145594600,19.6745947265625,-4.747063159942627,-0.28753042221069336,0.13262152671813965
1696508796161494300,19.690494384765625,-3.9840378761291504,-0.12090468406677246,-0.5183122158050537
1696508796177424400,19.70642431640625,-3.0697789192199707,0.34859752655029297,-1.1284093856811523
1696508796193263000,19.72226318359375,-1.939074993133545,0.8190677165985107,-1.5461305379867554
1696508796209071400,19.7380712890625,-0.6885662078857422,1.0889310836791992,-1.675943374633789
1696508796224940300,19.753940185546874,0.7378902435302734,0.9637131690979004,-1.4633657932281494
1696508796240779000,19.769779052734375,1.7814340591430664,1.0043256282806396,-0.6052069664001465
1696508796256678700,19.7856787109375,1.0989923477172852,1.3899240493774414,0.19715213775634766
1696508796272456200,19.801456298828125,0.4136943817138672,1.8747990131378174,0.16180038452148438
1696508796288355800,19.81735595703125,0.6104116439819336,2.349046468734741,-0.559988260269165
1696508796304255500,19.83325537109375,1.9700660705566406,2.61391019821167,-1.252225399017334
1696508796320124700,19.849124755859375,3.822972297668457,2.7805356979370117,-1.397682785987854
1696508796336054800,19.8650546875,5.54170036315918,3.2488086223602295,-1.4003950357437134
1696508796351985200,19.880985107421875,5.1095781326293945,4.312964916229248,-1.2082582712173462
1696508796367793200,19.896793212890625,2.981271743774414,4.540724754333496,-0.7815682888031006
1696508796383692800,19.91269287109375,2.649747848510742,2.781033515930176,1.3474647998809814
1696508796399592400,19.928592529296875,2.225306510925293,0.27988576889038086,4.267258644104004
1696508796415522600,19.9445224609375,2.4924192428588867,-2.135599374771118,6.408534049987793
1696508796431422200,19.960422119140624,2.4471330642700195,-3.3994109630584717,6.887889862060547
1696508796447261000,19.976260986328125,0.1393280029296875,-3.6035802364349365,6.198046684265137
1696508796463191000,19.99219091796875,-1.9168777465820312,-3.0320653915405273,4.935467720031738
1696508796478999300,20.007999267578125,-2.85518217086792,-2.1494829654693604,2.7419281005859375
1696508796494990300,20.023990234375,-3.530296802520752,-1.227036476135254,0.9120378494262695
1696508796510920700,20.039920654296875,-3.1305904388427734,-0.3763890266418457,-0.9789597988128662
